time,acc_x,acc_y,acc_z,mag_x,mag_y,mag_z,gyr_x,gyr_y,gyr_z,ori_z,ori_y,ori_x,q,p1,p2,p3,A0,A1,A2
1589451146.95823,-0.25,0.16,9.77,0.054444444444445,0.383333333333333,-0.746666666666667,0.025089107997419,-0.003272492347489,-0.002181661564993,6.1871921983199,-0.021816615649929,-0.03708824660488,0.9986572265625,0.018310546875,0.01214599609375,0.04754638671875,30.1543270941333,56.2887245662675,37.5164051001777
1589451146.96575,0.04,0.26,9.76,0.054444444444445,0.383333333333333,-0.746666666666667,0.026179938779915,0.004363323129986,-0.002181661564993,6.1871921983199,-0.021816615649929,-0.03708824660488,0.9986572265625,0.01837158203125,0.0120849609375,0.04754638671875,30.1543270941333,56.2887245662675,37.5164051001777
1589451146.97612,0.04,0.18,9.83,0.054444444444445,0.383333333333333,-0.746666666666667,0.025089107997419,-0.004363323129986,-0.031634092692397,6.18828302910239,-0.021816615649929,-0.03708824660488,0.9986572265625,0.0184326171875,0.01202392578125,0.04736328125,34.4698929559451,57.5060527200565,37.5164051001777
1589451146.98925,-0.26,0.07,9.84,0.054444444444445,0.383333333333333,-0.746666666666667,0.022907446432426,0.004363323129986,-0.117809724509617,6.18937385988489,-0.021816615649929,-0.03708824660488,0.9986572265625,0.0184326171875,0.01202392578125,0.04681396484375,34.4698929559451,57.5060527200565,44.5771069119335
1589451147.00025,-0.38,0.08,9.83,0.054444444444445,0.371111111111111,-0.746666666666667,0.020725784867433,0.009817477042468,-0.142898832507036,6.19046469066739,-0.021816615649929,-0.03708824660488,0.99871826171875,0.0184326171875,0.01202392578125,0.04608154296875,27.7960594789869,52.9633782919232,34.0222269008831
1589451147.01267,-0.17,0.17,9.82,0.054444444444445,0.371111111111111,-0.746666666666667,0.023998277214922,0.007635815477475,-0.131990524682071,6.19155552144988,-0.021816615649929,-0.03708824660488,0.99871826171875,0.0184326171875,0.01202392578125,0.04547119140625,35.1995757851219,56.2887245662675,34.9531629304656
1589451147.0184,-0.71,0.05,9.72,0.054444444444445,0.371111111111111,-0.746666666666667,0.027270769562411,0.017453292519943,-0.140717170942043,6.19264635223238,-0.021816615649929,-0.038179077387376,0.998779296875,0.0185546875,0.01214599609375,0.0447998046875,35.1995757851219,56.2887245662675,34.9531629304656
1589451147.02533,-0.32,0.15,9.81,0.054444444444445,0.371111111111111,-0.746666666666667,0.031634092692397,0.01527163095495,-0.109083078249646,6.19373718301488,-0.021816615649929,-0.038179077387376,0.998779296875,0.01873779296875,0.01220703125,0.04425048828125,35.1995757851219,56.2887245662675,34.9531629304656
1589451147.04099,-0.05,0.22,9.84,0.054444444444445,0.371111111111111,-0.746666666666667,0.028361600344908,0.007635815477475,-0.073085662427263,6.19482801379737,-0.021816615649929,-0.038179077387376,0.998779296875,0.01885986328125,0.01226806640625,0.04388427734375,30.1543270941333,48.2311990010739,31.2886926387862
1589451147.05186,-0.16,0.21,9.83,0.04,0.371111111111111,-0.732222222222222,0.014180800172454,0.031634092692397,-0.091629785729702,6.19700967536237,-0.022907446432426,-0.038179077387376,0.99884033203125,0.01885986328125,0.01239013671875,0.04302978515625,34.2329158900693,48.6366095920459,33.1365960190534
1589451147.05877,-0.22,0.17,9.85,0.04,0.371111111111111,-0.732222222222222,0.007635815477475,0.03381575425739,-0.117809724509617,6.19810050614486,-0.022907446432426,-0.038179077387376,0.99884033203125,0.018798828125,0.0125732421875,0.04241943359375,34.2329158900693,48.6366095920459,33.1365960190534
1589451147.06997,0,0.2,9.77,0.04,0.371111111111111,-0.732222222222222,0.002181661564993,0.022907446432426,-0.131990524682071,6.19919133692736,-0.022907446432426,-0.038179077387376,0.99884033203125,0.018798828125,0.0126953125,0.04180908203125,28.7678933881591,43.447343932276,32.0832680130652
1589451147.07594,0.57,0.34,9.78,0.04,0.371111111111111,-0.732222222222222,0.001090830782496,0.025089107997419,-0.163624617374468,6.20028216770986,-0.023998277214922,-0.038179077387376,0.9989013671875,0.01873779296875,0.0128173828125,0.041015625,28.7678933881591,43.447343932276,32.0832680130652
1589451147.09026,0.86,0.44,9.88,0.04,0.371111111111111,-0.732222222222222,0.010908307824965,0.028361600344908,-0.237801110584227,6.20246382927485,-0.023998277214922,-0.038179077387376,0.99896240234375,0.018798828125,0.01300048828125,0.03985595703125,31.2886926387862,45.3214313206897,32.0832680130652
1589451147.09712,0.78,0.32,9.8,0.04,0.364444444444444,-0.738888888888889,0.021816615649929,0.031634092692397,-0.366519142918809,6.20682715240483,-0.023998277214922,-0.038179077387376,0.9990234375,0.01885986328125,0.01318359375,0.03778076171875,31.2886926387862,45.3214313206897,34.7099555628389
1589451147.10662,0,0.11,9.89,0.04,0.364444444444444,-0.738888888888889,0.043633231299858,0.028361600344908,-0.524689606380795,6.21228130631732,-0.025089107997419,-0.038179077387376,0.99908447265625,0.01904296875,0.01336669921875,0.0352783203125,36.9652243244446,30.895340572783,34.7099555628389
1589451147.11624,-1.61,-0.07,9.73,0.04,0.364444444444444,-0.738888888888889,0.058904862254809,0.032724923474894,-0.581412807070611,6.2177354602298,-0.025089107997419,-0.039269908169873,0.99920654296875,0.019287109375,0.01361083984375,0.032470703125,36.9652243244446,30.895340572783,32.9164194995156
1589451147.12916,-2.18,-0.12,9.79,0.04,0.364444444444444,-0.738888888888889,0.058904862254809,0.028361600344908,-0.505054652295859,6.22209878335979,-0.026179938779915,-0.039269908169873,0.999267578125,0.01953125,0.0137939453125,0.030029296875,36.1924068182738,35.1995757851219,32.9164194995156
1589451147.13935,-2.19,-0.17,9.82,0.04,0.364444444444444,-0.738888888888889,0.056723200689816,0.025089107997419,-0.309795942228993,6.22537127570727,-0.026179938779915,-0.040360738952369,0.99932861328125,0.019775390625,0.013916015625,0.02850341796875,36.1924068182738,35.1995757851219,36.6952769567073
1589451147.14639,-0.22,0.17,9.89,0.047777777777778,0.376666666666667,-0.732222222222222,0.046905723647348,0.011999138607461,-0.077448985557248,6.22646210648977,-0.026179938779915,-0.040360738952369,0.99932861328125,0.02001953125,0.0140380859375,0.02813720703125,39.2052273141035,35.1995757851219,36.6952769567073
1589451147.1561,-0.32,0.19,9.78,0.047777777777778,0.376666666666667,-0.732222222222222,0.045814892864851,0.008726646259972,-0.002181661564993,6.22646210648977,-0.026179938779915,-0.040360738952369,0.99932861328125,0.02020263671875,0.0140380859375,0.02813720703125,39.2052273141035,42.4050638104402,33.3371213661899
1589451147.16646,-0.28,0.18,9.75,0.047777777777778,0.376666666666667,-0.732222222222222,0.041451569734865,0.011999138607461,-0.002181661564993,6.22646210648977,-0.026179938779915,-0.041451569734865,0.999267578125,0.02044677734375,0.01409912109375,0.02813720703125,34.2329158900693,48.6366095920459,33.3371213661899
1589451147.1764,0.3,0.31,9.77,0.047777777777778,0.376666666666667,-0.732222222222222,0.028361600344908,0.011999138607461,-0.011999138607461,6.22646210648977,-0.026179938779915,-0.041451569734865,0.999267578125,0.02056884765625,0.01416015625,0.028076171875,34.2329158900693,48.6366095920459,33.3371213661899
1589451147.1899,-0.24,0.16,9.84,0.047777777777778,0.376666666666667,-0.732222222222222,0.030543261909901,0.009817477042468,-0.095993108859688,6.22755293727227,-0.026179938779915,-0.041451569734865,0.99932861328125,0.02069091796875,0.01416015625,0.027587890625,34.4698929559451,44.9268103449648,31.8759595326099
1589451147.2019,-0.61,0.1,9.86,0.047777777777778,0.371111111111111,-0.732222222222222,0.032724923474894,0.020725784867433,-0.201803694761844,6.22973459883726,-0.027270769562411,-0.041451569734865,0.99932861328125,0.0208740234375,0.0142822265625,0.0267333984375,33.5626038190663,55.1187027150816,29.9696515534829
1589451147.20811,-0.98,0.12,9.84,0.047777777777778,0.371111111111111,-0.732222222222222,0.028361600344908,0.020725784867433,-0.193077048501873,6.23082542961976,-0.027270769562411,-0.042542400517362,0.99932861328125,0.02099609375,0.014404296875,0.0257568359375,33.5626038190663,55.1187027150816,29.9696515534829
1589451147.22107,-0.33,0.17,9.79,0.047777777777778,0.371111111111111,-0.732222222222222,0.032724923474894,0.008726646259972,-0.11999138607461,6.23191626040225,-0.027270769562411,-0.042542400517362,0.99932861328125,0.0211181640625,0.014404296875,0.02520751953125,33.1365960190534,52.4882270884092,34.7099555628389
1589451147.22762,-0.17,0.22,9.79,0.047777777777778,0.371111111111111,-0.732222222222222,0.03381575425739,-0.003272492347489,-0.041451569734865,6.23300709118475,-0.027270769562411,-0.042542400517362,0.99932861328125,0.02130126953125,0.01446533203125,0.02496337890625,33.1365960190534,52.4882270884092,34.7099555628389
1589451147.24002,-0.16,0.23,9.85,0.047777777777778,0.371111111111111,-0.732222222222222,0.030543261909901,-0.002181661564993,-0.03381575425739,6.23300709118475,-0.027270769562411,-0.042542400517362,0.99932861328125,0.02142333984375,0.01446533203125,0.0247802734375,33.3371213661899,52.4882270884092,34.7099555628389
1589451147.24647,-0.29,0.19,9.88,0.027777777777778,0.371111111111111,-0.746666666666667,0.026179938779915,0.008726646259972,-0.074176493209759,6.23518875274974,-0.027270769562411,-0.043633231299858,0.9993896484375,0.02154541015625,0.01446533203125,0.02392578125,33.3371213661899,56.2887245662675,28.4314277396525
1589451147.26797,-0.29,0.24,9.7,0.027777777777778,0.371111111111111,-0.746666666666667,0.016362461737447,0,-0.057814031472312,6.23627958353224,-0.027270769562411,-0.043633231299858,0.9993896484375,0.021728515625,0.0145263671875,0.023193359375,34.0222269008831,73.5347107019731,34.7099555628389
1589451147.28058,-0.26,0.25,9.75,0.027777777777778,0.371111111111111,-0.746666666666667,0.010908307824965,-0.004363323129986,-0.027270769562411,6.23627958353224,-0.027270769562411,-0.043633231299858,0.9993896484375,0.021728515625,0.0145263671875,0.0230712890625,34.2329158900693,57.5060527200565,27.1867307116409
1589451147.29123,-0.4,0.16,9.81,0.027777777777778,0.371111111111111,-0.746666666666667,0.007635815477475,-0.001090830782496,-0.041451569734865,6.23737041431474,-0.027270769562411,-0.043633231299858,0.9993896484375,0.02166748046875,0.01458740234375,0.0228271484375,34.2329158900693,57.5060527200565,27.1867307116409
1589451147.29811,-0.32,0.2,9.82,0.027777777777778,0.371111111111111,-0.746666666666667,0.007635815477475,0.001090830782496,-0.041451569734865,6.23846124509723,-0.027270769562411,-0.043633231299858,0.9993896484375,0.02154541015625,0.01458740234375,0.02227783203125,34.0222269008831,57.5060527200565,27.1867307116409
1589451147.30722,-0.33,0.16,9.85,0.027777777777778,0.371111111111111,-0.746666666666667,0.006544984694979,0.001090830782496,-0.011999138607461,6.23846124509723,-0.027270769562411,-0.042542400517362,0.9993896484375,0.021484375,0.01458740234375,0.022216796875,34.0222269008831,60.6382293399799,28.7678933881591
1589451147.32134,-0.32,0.18,9.79,0.027777777777778,0.371111111111111,-0.746666666666667,0.003272492347489,0.008726646259972,-0.004363323129986,6.23846124509723,-0.027270769562411,-0.042542400517362,0.9993896484375,0.0213623046875,0.0146484375,0.022216796875,34.2329158900693,58.0700367893867,24.7220630408575
1589451147.32881,-0.33,0.18,9.81,0.027777777777778,0.371111111111111,-0.746666666666667,0,0.009817477042468,0.001090830782496,6.23846124509723,-0.027270769562411,-0.042542400517362,0.9993896484375,0.02130126953125,0.0146484375,0.022216796875,34.2329158900693,58.0700367893867,24.7220630408575
1589451147.34128,-0.33,0.2,9.82,0.027777777777778,0.371111111111111,-0.746666666666667,0.002181661564993,0.014180800172454,0.001090830782496,6.23846124509723,-0.028361600344908,-0.042542400517362,0.9993896484375,0.02117919921875,0.01470947265625,0.022216796875,34.2329158900693,52.4882270884092,29.4458622677045
1589451147.3485,-0.36,0.19,9.87,0.04,0.371111111111111,-0.746666666666667,0.005454153912482,0.019634954084936,0.002181661564993,6.23846124509723,-0.028361600344908,-0.042542400517362,0.9993896484375,0.0211181640625,0.01483154296875,0.022216796875,34.2329158900693,52.4882270884092,29.4458622677045
1589451147.35806,-0.37,0.18,9.84,0.04,0.371111111111111,-0.746666666666667,0.006544984694979,0.01527163095495,0.001090830782496,6.23846124509723,-0.028361600344908,-0.042542400517362,0.99945068359375,0.02099609375,0.01495361328125,0.022216796875,33.5626038190663,59.3610929299734,23.4187893487974
1589451147.37335,-0.34,0.19,9.77,0.04,0.371111111111111,-0.746666666666667,0.007635815477475,0.009817477042468,0.001090830782496,6.23846124509723,-0.028361600344908,-0.042542400517362,0.99945068359375,0.02093505859375,0.01495361328125,0.022216796875,34.4698929559451,52.4882270884092,28.5987354994569
1589451147.37932,-0.33,0.18,9.77,0.04,0.371111111111111,-0.746666666666667,0.006544984694979,0.010908307824965,0.001090830782496,6.23846124509723,-0.028361600344908,-0.041451569734865,0.99945068359375,0.0208740234375,0.01507568359375,0.022216796875,34.4698929559451,52.4882270884092,28.5987354994569
1589451147.39168,-0.35,0.18,9.81,0.04,0.371111111111111,-0.746666666666667,0.008726646259972,0.013089969389958,0.002181661564993,6.23846124509723,-0.028361600344908,-0.041451569734865,0.99945068359375,0.020751953125,0.01513671875,0.022216796875,31.2886926387862,52.4882270884092,28.5987354994569
1589451147.40035,-0.33,0.23,9.86,0.062222222222222,0.371111111111111,-0.738888888888889,0.009817477042468,0.013089969389958,0.003272492347489,6.23518875274974,-0.029452431127404,-0.041451569734865,0.9993896484375,0.02069091796875,0.0152587890625,0.02374267578125,31.2886926387862,58.0700367893867,27.3405735952978
1589451147.40822,-0.33,0.2,9.83,0.062222222222222,0.371111111111111,-0.738888888888889,0.007635815477475,0.017453292519943,0.002181661564993,6.23518875274974,-0.029452431127404,-0.041451569734865,0.9993896484375,0.0206298828125,0.01531982421875,0.02374267578125,35.1995757851219,58.0700367893867,27.3405735952978
1589451147.41924,-0.35,0.2,9.73,0.062222222222222,0.371111111111111,-0.738888888888889,0.009817477042468,0.021816615649929,0.001090830782496,6.23518875274974,-0.029452431127404,-0.041451569734865,0.9993896484375,0.02056884765625,0.01544189453125,0.02374267578125,35.1995757851219,55.1187027150816,29.9696515534829
1589451147.43088,-0.34,0.21,9.76,0.062222222222222,0.371111111111111,-0.738888888888889,0.010908307824965,0.020725784867433,0.003272492347489,6.23518875274974,-0.029452431127404,-0.041451569734865,0.9993896484375,0.0205078125,0.01556396484375,0.02374267578125,34.9531629304656,38.0544357515846,29.9696515534829
1589451147.44237,-0.35,0.19,9.84,0.062222222222222,0.371111111111111,-0.738888888888889,0.011999138607461,0.019634954084936,0.005454153912482,6.23518875274974,-0.029452431127404,-0.041451569734865,0.9993896484375,0.0205078125,0.01568603515625,0.02374267578125,34.9531629304656,38.0544357515846,27.7960594789869
1589451147.45241,-0.41,0.21,9.84,0.035555555555556,0.371111111111111,-0.732222222222222,0.017453292519943,0.021816615649929,0.006544984694979,6.23518875274974,-0.030543261909901,-0.041451569734865,0.9993896484375,0.0205078125,0.01580810546875,0.023681640625,34.2329158900693,48.6366095920459,29.9696515534829
1589451147.45964,-0.47,0.19,9.88,0.035555555555556,0.371111111111111,-0.732222222222222,0.011999138607461,0.01527163095495,0.032724923474894,6.23518875274974,-0.030543261909901,-0.041451569734865,0.9993896484375,0.0205078125,0.01593017578125,0.02386474609375,34.2329158900693,48.6366095920459,29.9696515534829
1589451147.47109,-0.29,0.23,9.76,0.035555555555556,0.371111111111111,-0.732222222222222,0.006544984694979,0.010908307824965,0.05235987755983,6.23409792196725,-0.030543261909901,-0.041451569734865,0.9993896484375,0.02044677734375,0.0159912109375,0.02410888671875,33.7909544074833,48.6366095920459,28.1185349541383
1589451147.47862,-0.27,0.26,9.8,0.035555555555556,0.371111111111111,-0.732222222222222,0.005454153912482,0.011999138607461,0.030543261909901,6.23409792196725,-0.030543261909901,-0.041451569734865,0.9993896484375,0.0203857421875,0.01605224609375,0.02423095703125,33.7909544074833,48.6366095920459,28.1185349541383
1589451147.49211,-0.34,0.22,9.8,0.035555555555556,0.371111111111111,-0.732222222222222,0.010908307824965,0.016362461737447,0.008726646259972,6.23409792196725,-0.030543261909901,-0.041451569734865,0.9993896484375,0.0203857421875,0.01617431640625,0.02423095703125,34.2329158900693,50.0351803226227,33.1365960190534
1589451147.49907,-0.34,0.22,9.81,0.054444444444445,0.376666666666667,-0.724444444444444,0.016362461737447,0.017453292519943,0.004363323129986,6.23300709118475,-0.030543261909901,-0.041451569734865,0.99932861328125,0.02044677734375,0.0162353515625,0.0247802734375,34.2329158900693,50.0351803226227,33.1365960190534
1589451147.51014,-0.37,0.24,9.83,0.054444444444445,0.376666666666667,-0.724444444444444,0.01527163095495,0.016362461737447,0.001090830782496,6.23300709118475,-0.031634092692397,-0.041451569734865,0.99932861328125,0.02044677734375,0.016357421875,0.0247802734375,28.1185349541383,48.2311990010739,39.2052273141035
1589451147.52551,-0.35,0.25,9.73,0.054444444444445,0.376666666666667,-0.724444444444444,0.013089969389958,0.01854412330244,0.001090830782496,6.23300709118475,-0.031634092692397,-0.041451569734865,0.99932861328125,0.02044677734375,0.0164794921875,0.0247802734375,34.2329158900693,48.2311990010739,39.2052273141035
1589451147.53154,-0.37,0.24,9.77,0.054444444444445,0.376666666666667,-0.724444444444444,0.006544984694979,0.01854412330244,0.001090830782496,6.23300709118475,-0.031634092692397,-0.041451569734865,0.99932861328125,0.0203857421875,0.01654052734375,0.0247802734375,34.2329158900693,48.2311990010739,39.2052273141035
1589451147.54282,-0.85,0.25,9.82,0.054444444444445,0.376666666666667,-0.724444444444444,0.002181661564993,0.020725784867433,0.01527163095495,6.23300709118475,-0.031634092692397,-0.041451569734865,0.99932861328125,0.02032470703125,0.01678466796875,0.02484130859375,30.1543270941333,48.2311990010739,39.2052273141035
1589451147.54969,-0.37,0.36,9.85,0.047777777777778,0.371111111111111,-0.738888888888889,0.004363323129986,0.008726646259972,0.107992247467149,6.23191626040225,-0.031634092692397,-0.040360738952369,0.99932861328125,0.020263671875,0.016845703125,0.02545166015625,30.1543270941333,50.9604378494876,39.2052273141035
1589451147.56352,-0.3,0.25,9.86,0.047777777777778,0.371111111111111,-0.738888888888889,0.007635815477475,0.013089969389958,0.1232638784221,6.23082542961976,-0.032724923474894,-0.040360738952369,0.99932861328125,0.020263671875,0.01690673828125,0.02606201171875,34.2329158900693,50.9604378494876,41.4085744282795
1589451147.5695,-0.2,0.14,9.73,0.047777777777778,0.371111111111111,-0.738888888888889,0.01527163095495,0.017453292519943,0.081812308687234,6.22973459883726,-0.032724923474894,-0.041451569734865,0.99932861328125,0.020263671875,0.01702880859375,0.02642822265625,34.2329158900693,50.9604378494876,41.4085744282795
1589451147.58239,-0.33,0.16,9.8,0.047777777777778,0.371111111111111,-0.738888888888889,0.021816615649929,0.01527163095495,0.040360738952369,6.22973459883726,-0.032724923474894,-0.041451569734865,0.999267578125,0.0203857421875,0.01708984375,0.026611328125,30.7021135798357,50.9604378494876,41.0750440654217
1589451147.59172,-0.43,0.21,9.86,0.047777777777778,0.371111111111111,-0.738888888888889,0.020725784867433,0.005454153912482,0.021816615649929,6.22864376805476,-0.032724923474894,-0.041451569734865,0.999267578125,0.0205078125,0.01708984375,0.0267333984375,30.7021135798357,50.9604378494876,41.0750440654217
1589451147.60318,-0.36,0.22,9.89,0.062222222222222,0.364444444444444,-0.746666666666667,0.011999138607461,0.011999138607461,0.026179938779915,6.22755293727227,-0.032724923474894,-0.041451569734865,0.999267578125,0.02056884765625,0.01715087890625,0.02777099609375,34.2329158900693,50.4695110015813,41.0750440654217
1589451147.60936,-0.3,0.19,9.89,0.062222222222222,0.364444444444444,-0.746666666666667,0.008726646259972,0.020725784867433,0.01854412330244,6.22646210648977,-0.032724923474894,-0.041451569734865,0.999267578125,0.0205078125,0.01727294921875,0.02789306640625,34.2329158900693,50.4695110015813,41.0750440654217
1589451147.61948,-0.46,0.26,9.73,0.062222222222222,0.364444444444444,-0.746666666666667,0.010908307824965,0.027270769562411,0.019634954084936,6.22646210648977,-0.032724923474894,-0.041451569734865,0.999267578125,0.0205078125,0.01739501953125,0.0279541015625,33.1365960190534,39.5108430128154,41.0750440654217
1589451147.62966,-0.35,0.23,9.77,0.062222222222222,0.364444444444444,-0.746666666666667,0.013089969389958,0.026179938779915,0.028361600344908,6.22646210648977,-0.03381575425739,-0.041451569734865,0.999267578125,0.0205078125,0.01751708984375,0.02813720703125,33.1365960190534,39.5108430128154,40.7465012797081
1589451147.64324,-0.31,0.22,9.82,0.062222222222222,0.364444444444444,-0.746666666666667,0.014180800172454,0.028361600344908,0.017453292519943,6.22646210648977,-0.03381575425739,-0.041451569734865,0.99920654296875,0.0205078125,0.0177001953125,0.0281982421875,33.7909544074833,52.4882270884092,40.103947453342
1589451147.65008,-0.38,0.23,9.82,0.047777777777778,0.371111111111111,-0.732222222222222,0.021816615649929,0.021816615649929,0.005454153912482,6.22646210648977,-0.03381575425739,-0.041451569734865,0.99920654296875,0.02056884765625,0.017822265625,0.0281982421875,33.7909544074833,52.4882270884092,40.103947453342
1589451147.66028,-0.4,0.23,9.82,0.047777777777778,0.371111111111111,-0.732222222222222,0.020725784867433,0.017453292519943,0.002181661564993,6.22646210648977,-0.03381575425739,-0.041451569734865,0.99920654296875,0.0206298828125,0.01788330078125,0.0281982421875,40.4228375522045,42.7591444390516,40.103947453342
1589451147.6696,-0.38,0.22,9.75,0.047777777777778,0.371111111111111,-0.732222222222222,0.019634954084936,0.007635815477475,0,6.22646210648977,-0.03381575425739,-0.041451569734865,0.99920654296875,0.0206298828125,0.01788330078125,0.0281982421875,40.4228375522045,42.7591444390516,38.9040016109751
1589451147.67984,-0.37,0.26,9.78,0.047777777777778,0.371111111111111,-0.732222222222222,0.013089969389958,0.007635815477475,0,6.22646210648977,-0.03381575425739,-0.041451569734865,0.99920654296875,0.02069091796875,0.0179443359375,0.0281982421875,30.1543270941333,48.2311990010739,38.9040016109751
1589451147.69774,-0.39,0.23,9.81,0.047777777777778,0.371111111111111,-0.732222222222222,0.006544984694979,0.010908307824965,0.002181661564993,6.22646210648977,-0.03381575425739,-0.041451569734865,0.99920654296875,0.0206298828125,0.01800537109375,0.0281982421875,41.7131084030182,37.2389082825563,37.2389082825563
1589451147.70398,-0.43,0.22,9.83,0.074444444444445,0.358888888888889,-0.746666666666667,0.006544984694979,0.01527163095495,-0.002181661564993,6.22209878335979,-0.034906585039887,-0.041451569734865,0.9991455078125,0.0205078125,0.01812744140625,0.0302734375,41.7131084030182,37.2389082825563,37.2389082825563
1589451147.71496,-0.4,0.24,9.85,0.074444444444445,0.358888888888889,-0.746666666666667,0.009817477042468,0.005454153912482,-0.001090830782496,6.22209878335979,-0.034906585039887,-0.041451569734865,0.9991455078125,0.0205078125,0.01812744140625,0.0302734375,34.9531629304656,32.0832680130652,31.2886926387862
1589451147.72164,-0.4,0.22,9.73,0.074444444444445,0.358888888888889,-0.746666666666667,0.009817477042468,-0.001090830782496,-0.003272492347489,6.22209878335979,-0.034906585039887,-0.041451569734865,0.9991455078125,0.02044677734375,0.0181884765625,0.0302734375,34.9531629304656,32.0832680130652,31.2886926387862
1589451147.7345,-0.4,0.21,9.78,0.074444444444445,0.358888888888889,-0.746666666666667,0.010908307824965,-0.004363323129986,-0.003272492347489,6.22209878335979,-0.034906585039887,-0.041451569734865,0.9991455078125,0.02044677734375,0.0181884765625,0.0302734375,39.2052273141035,32.698962376204,30.3411416352486
1589451147.7432,-0.39,0.24,9.86,0.074444444444445,0.358888888888889,-0.746666666666667,0.008726646259972,-0.008726646259972,0.001090830782496,6.22209878335979,-0.034906585039887,-0.041451569734865,0.9991455078125,0.0203857421875,0.0181884765625,0.0302734375,39.2052273141035,32.698962376204,30.3411416352486
1589451147.75427,-0.36,0.27,9.87,0.066666666666667,0.358888888888889,-0.738888888888889,0.005454153912482,-0.009817477042468,-0.002181661564993,6.21991712179479,-0.034906585039887,-0.041451569734865,0.9991455078125,0.02032470703125,0.01824951171875,0.03125,35.4241394878379,47.7880930831402,26.8838519417619
1589451147.76023,-0.39,0.27,9.83,0.066666666666667,0.358888888888889,-0.738888888888889,-0.002181661564993,-0.008726646259972,-0.003272492347489,6.21991712179479,-0.034906585039887,-0.041451569734865,0.9991455078125,0.020263671875,0.01824951171875,0.03125,35.4241394878379,47.7880930831402,26.8838519417619
1589451147.77342,-0.39,0.27,9.7,0.066666666666667,0.358888888888889,-0.738888888888889,-0.001090830782496,-0.010908307824965,-0.002181661564993,6.21991712179479,-0.034906585039887,-0.041451569734865,0.9991455078125,0.020263671875,0.0181884765625,0.03125,33.1365960190534,55.6979704015901,28.1185349541383
1589451147.78026,-0.38,0.29,9.76,0.066666666666667,0.358888888888889,-0.738888888888889,-0.005454153912482,-0.006544984694979,0.001090830782496,6.21991712179479,-0.034906585039887,-0.041451569734865,0.9991455078125,0.02020263671875,0.0181884765625,0.03125,33.1365960190534,55.6979704015901,28.1185349541383
1589451147.79416,-0.37,0.27,9.81,0.066666666666667,0.358888888888889,-0.738888888888889,-0.001090830782496,-0.006544984694979,0,6.21991712179479,-0.034906585039887,-0.041451569734865,0.9991455078125,0.02020263671875,0.0181884765625,0.03125,35.4241394878379,51.9695474684264,35.9328824273501
1589451147.80103,-0.39,0.26,9.84,0.054444444444445,0.376666666666667,-0.746666666666667,0.002181661564993,-0.010908307824965,0.001090830782496,6.21991712179479,-0.034906585039887,-0.040360738952369,0.9991455078125,0.0201416015625,0.0181884765625,0.03131103515625,35.4241394878379,51.9695474684264,35.9328824273501
1589451147.8113,-0.38,0.26,9.84,0.054444444444445,0.376666666666667,-0.746666666666667,0,-0.006544984694979,-0.003272492347489,6.21991712179479,-0.034906585039887,-0.040360738952369,0.9991455078125,0.0201416015625,0.0181884765625,0.03131103515625,31.6711414149526,51.9695474684264,35.9328824273501
1589451147.8213,-0.44,0.67,9.88,0.054444444444445,0.376666666666667,-0.746666666666667,0.001090830782496,-0.005454153912482,0.003272492347489,6.21991712179479,-0.034906585039887,-0.040360738952369,0.9991455078125,0.0201416015625,0.0181884765625,0.03131103515625,31.6711414149526,53.5008392071668,28.2659406116019
1589451147.83256,-0.27,-0.26,9.76,0.054444444444445,0.376666666666667,-0.746666666666667,0.004363323129986,-0.003272492347489,0.023998277214922,6.21991712179479,-0.034906585039887,-0.040360738952369,0.9991455078125,0.02001953125,0.0181884765625,0.0313720703125,34.4698929559451,53.5008392071668,35.6768156760308
1589451147.84407,-0.38,0.05,9.74,0.054444444444445,0.376666666666667,-0.746666666666667,0.003272492347489,0,0.025089107997419,6.21991712179479,-0.034906585039887,-0.040360738952369,0.9991455078125,0.0198974609375,0.0181884765625,0.031494140625,34.4698929559451,53.5008392071668,35.6768156760308
1589451147.8543,-0.38,0.23,9.88,0.04,0.358888888888889,-0.746666666666667,-0.001090830782496,0.001090830782496,0.017453292519943,6.21991712179479,-0.034906585039887,-0.040360738952369,0.9991455078125,0.01983642578125,0.0181884765625,0.03131103515625,31.2886926387862,50.0351803226227,32.4841757210392
1589451147.86043,-0.38,0.1,9.89,0.04,0.358888888888889,-0.746666666666667,-0.001090830782496,-0.004363323129986,0.01527163095495,6.21991712179479,-0.034906585039887,-0.040360738952369,0.9991455078125,0.01983642578125,0.0181884765625,0.03143310546875,31.2886926387862,50.0351803226227,32.4841757210392
1589451147.87217,-0.31,0.3,9.69,0.04,0.358888888888889,-0.746666666666667,0.003272492347489,0.008726646259972,0.009817477042468,6.21991712179479,-0.034906585039887,-0.040360738952369,0.9991455078125,0.01983642578125,0.0181884765625,0.03143310546875,34.2329158900693,51.9695474684264,35.6768156760308
1589451147.88376,-0.42,0.23,9.73,0.04,0.358888888888889,-0.746666666666667,0.011999138607461,0,-0.003272492347489,6.21991712179479,-0.034906585039887,-0.040360738952369,0.9991455078125,0.0198974609375,0.0181884765625,0.03143310546875,30.895340572783,51.9695474684264,35.6768156760308
1589451147.89463,-0.42,0.14,9.85,0.04,0.358888888888889,-0.746666666666667,0.013089969389958,0.002181661564993,-0.009817477042468,6.21991712179479,-0.034906585039887,-0.040360738952369,0.9991455078125,0.0198974609375,0.0181884765625,0.03143310546875,30.895340572783,50.0351803226227,35.9328824273501
1589451147.90602,-0.28,0.42,9.92,0.047777777777778,0.364444444444444,-0.753333333333333,0.008726646259972,0.006544984694979,-0.003272492347489,6.21991712179479,-0.034906585039887,-0.040360738952369,0.9991455078125,0.01983642578125,0.0181884765625,0.0313720703125,34.0222269008831,50.4695110015813,32.2720117591499
1589451147.91262,-0.26,0.46,9.89,0.047777777777778,0.364444444444444,-0.753333333333333,0.001090830782496,0.008726646259972,-0.003272492347489,6.21991712179479,-0.034906585039887,-0.040360738952369,0.9991455078125,0.01983642578125,0.0181884765625,0.0313720703125,34.0222269008831,50.4695110015813,32.2720117591499
1589451147.92475,-0.34,0.3,9.74,0.047777777777778,0.364444444444444,-0.753333333333333,0.001090830782496,0.006544984694979,-0.004363323129986,6.21991712179479,-0.034906585039887,-0.040360738952369,0.9991455078125,0.01983642578125,0.0181884765625,0.0313720703125,30.1543270941333,52.9633782919232,32.2720117591499
1589451147.93172,-0.4,0.13,9.72,0.047777777777778,0.364444444444444,-0.753333333333333,0.002181661564993,0.004363323129986,-0.001090830782496,6.21991712179479,-0.034906585039887,-0.040360738952369,0.9991455078125,0.01983642578125,0.0181884765625,0.0313720703125,30.1543270941333,52.9633782919232,32.2720117591499
1589451147.9444,-0.5,0.07,9.82,0.047777777777778,0.364444444444444,-0.753333333333333,0.001090830782496,0.004363323129986,-0.001090830782496,6.21991712179479,-0.034906585039887,-0.040360738952369,0.9991455078125,0.01971435546875,0.01824951171875,0.0313720703125,32.4841757210392,54.6069144638397,32.9164194995156
1589451147.95155,-0.42,0.18,9.88,0.047777777777778,0.364444444444444,-0.726666666666667,0.001090830782496,0,0,6.21991712179479,-0.034906585039887,-0.040360738952369,0.9991455078125,0.0196533203125,0.01824951171875,0.0313720703125,32.4841757210392,54.6069144638397,32.9164194995156
1589451147.96505,-0.37,0.25,9.85,0.047777777777778,0.364444444444444,-0.726666666666667,0.001090830782496,-0.005454153912482,-0.003272492347489,6.21991712179479,-0.034906585039887,-0.039269908169873,0.9991455078125,0.01959228515625,0.01824951171875,0.0313720703125,28.1185349541383,51.4603686617877,33.1365960190534
1589451147.97148,-0.39,0.26,9.72,0.047777777777778,0.364444444444444,-0.726666666666667,0.004363323129986,-0.004363323129986,0,6.21991712179479,-0.034906585039887,-0.039269908169873,0.9991455078125,0.01953125,0.018310546875,0.0313720703125,28.1185349541383,51.4603686617877,33.1365960190534
1589451147.98249,-0.39,0.26,9.78,0.047777777777778,0.364444444444444,-0.726666666666667,0.001090830782496,-0.006544984694979,-0.001090830782496,6.21991712179479,-0.034906585039887,-0.039269908169873,0.9991455078125,0.01953125,0.018310546875,0.0313720703125,25.2313587987808,51.9695474684264,33.1365960190534
1589451147.99781,-0.38,0.23,9.79,0.047777777777778,0.364444444444444,-0.726666666666667,0.004363323129986,-0.007635815477475,-0.001090830782496,6.21991712179479,-0.034906585039887,-0.039269908169873,0.9991455078125,0.01947021484375,0.018310546875,0.0313720703125,34.2329158900693,51.9695474684264,35.6768156760308
1589451148.00379,-0.37,0.26,9.82,0.047777777777778,0.371111111111111,-0.738888888888889,0.005454153912482,-0.008726646259972,-0.003272492347489,6.21991712179479,-0.034906585039887,-0.039269908169873,0.9991455078125,0.0194091796875,0.018310546875,0.03131103515625,34.2329158900693,48.2311990010739,35.6768156760308
1589451148.01222,-0.37,0.24,9.78,0.047777777777778,0.371111111111111,-0.738888888888889,0.007635815477475,-0.009817477042468,-0.003272492347489,6.21991712179479,-0.034906585039887,-0.039269908169873,0.9991455078125,0.0194091796875,0.018310546875,0.03131103515625,34.2329158900693,48.2311990010739,35.1995757851219
1589451148.02284,-0.37,0.27,9.71,0.047777777777778,0.371111111111111,-0.738888888888889,0.007635815477475,-0.010908307824965,0,6.21991712179479,-0.034906585039887,-0.039269908169873,0.9991455078125,0.01934814453125,0.01824951171875,0.03131103515625,30.1543270941333,33.3371213661899,38.6365760186654
1589451148.03299,-0.36,0.28,9.76,0.047777777777778,0.371111111111111,-0.738888888888889,0.005454153912482,-0.008726646259972,0,6.21991712179479,-0.034906585039887,-0.039269908169873,0.9991455078125,0.01934814453125,0.018310546875,0.03131103515625,30.1543270941333,33.3371213661899,38.6365760186654
1589451148.04489,-0.36,0.28,9.82,0.047777777777778,0.371111111111111,-0.738888888888889,0.005454153912482,-0.002181661564993,0.002181661564993,6.21991712179479,-0.034906585039887,-0.039269908169873,0.9991455078125,0.01934814453125,0.018310546875,0.03131103515625,32.9164194995156,50.9604378494876,33.1365960190534
1589451148.05702,-0.37,0.28,9.82,0.047777777777778,0.391111111111111,-0.746666666666667,-0.001090830782496,0.004363323129986,0.001090830782496,6.21991712179479,-0.034906585039887,-0.039269908169873,0.9991455078125,0.019287109375,0.018310546875,0.03125,31.8759595326099,51.4603686617877,30.1543270941333
1589451148.06284,-0.35,0.26,9.8,0.047777777777778,0.391111111111111,-0.746666666666667,-0.002181661564993,0.010908307824965,0.002181661564993,6.21991712179479,-0.034906585039887,-0.039269908169873,0.9991455078125,0.019287109375,0.01837158203125,0.03125,31.8759595326099,51.4603686617877,30.1543270941333
1589451148.0773,-0.37,0.25,9.74,0.047777777777778,0.391111111111111,-0.746666666666667,-0.004363323129986,0.009817477042468,0,6.21991712179479,-0.034906585039887,-0.039269908169873,0.9991455078125,0.019287109375,0.01837158203125,0.03125,34.7099555628389,55.1187027150816,29.2691949049157
1589451148.08398,-0.5,0.46,9.84,0.047777777777778,0.391111111111111,-0.746666666666667,-0.002181661564993,0.010908307824965,0.003272492347489,6.21991712179479,-0.034906585039887,-0.039269908169873,0.9991455078125,0.019287109375,0.0184326171875,0.03125,34.7099555628389,55.1187027150816,29.2691949049157
1589451148.0966,-0.37,0.61,9.8,0.047777777777778,0.391111111111111,-0.746666666666667,0.004363323129986,0.008726646259972,0.023998277214922,6.21991712179479,-0.034906585039887,-0.039269908169873,0.9991455078125,0.019287109375,0.0184326171875,0.0313720703125,38.9040016109751,51.4603686617877,25.0989107954587
1589451148.10216,-0.27,-0.13,9.78,0.047777777777778,0.364444444444444,-0.753333333333333,0.006544984694979,-0.002181661564993,0.062177354602298,6.2188262910123,-0.034906585039887,-0.039269908169873,0.9991455078125,0.01922607421875,0.0184326171875,0.03167724609375,38.9040016109751,51.4603686617877,25.0989107954587
1589451148.11652,-0.39,0.04,9.78,0.047777777777778,0.364444444444444,-0.753333333333333,0.010908307824965,0.010908307824965,0.01854412330244,6.2188262910123,-0.034906585039887,-0.039269908169873,0.9991455078125,0.01922607421875,0.01849365234375,0.03173828125,34.9531629304656,55.6979704015901,29.4458622677045
1589451148.12226,-0.39,0.23,9.75,0.047777777777778,0.364444444444444,-0.753333333333333,0.014180800172454,0.009817477042468,0.004363323129986,6.2188262910123,-0.034906585039887,-0.039269908169873,0.9991455078125,0.01922607421875,0.01849365234375,0.03173828125,34.9531629304656,55.6979704015901,29.4458622677045
1589451148.13249,-0.38,0.26,9.76,0.047777777777778,0.364444444444444,-0.753333333333333,0.016362461737447,0.010908307824965,0.001090830782496,6.2188262910123,-0.034906585039887,-0.039269908169873,0.9991455078125,0.01922607421875,0.0185546875,0.03173828125,36.9652243244446,55.6979704015901,29.4458622677045
1589451148.14586,-0.37,0.29,9.83,0.047777777777778,0.364444444444444,-0.753333333333333,0.011999138607461,0.011999138607461,0.001090830782496,6.2188262910123,-0.034906585039887,-0.039269908169873,0.9991455078125,0.019287109375,0.01861572265625,0.03173828125,36.9652243244446,42.4050638104402,24.1088280427634
1589451148.15593,-0.43,0.32,9.84,0.035555555555556,0.364444444444444,-0.76,0.013089969389958,0.017453292519943,0.002181661564993,6.22100795257729,-0.035997415822383,-0.039269908169873,0.9991455078125,0.01934814453125,0.0186767578125,0.031005859375,34.7099555628389,55.6979704015901,32.2720117591499
1589451148.16344,-0.53,0.53,9.85,0.035555555555556,0.364444444444444,-0.76,0.008726646259972,0.017453292519943,0.013089969389958,6.22100795257729,-0.035997415822383,-0.039269908169873,0.9991455078125,0.01934814453125,0.018798828125,0.03106689453125,34.7099555628389,55.6979704015901,32.2720117591499
1589451148.17265,-0.27,0.19,9.68,0.035555555555556,0.364444444444444,-0.76,0.007635815477475,0.002181661564993,0.075267323992256,6.21991712179479,-0.035997415822383,-0.039269908169873,0.9991455078125,0.019287109375,0.018798828125,0.03143310546875,34.9531629304656,42.7591444390516,32.2720117591499
1589451148.18255,-0.36,0.18,9.69,0.035555555555556,0.364444444444444,-0.76,0.002181661564993,0.004363323129986,0.065449846949787,6.2188262910123,-0.035997415822383,-0.039269908169873,0.9991455078125,0.019287109375,0.018798828125,0.03173828125,34.9531629304656,42.7591444390516,25.2313587987808
1589451148.19585,-0.34,0.31,9.83,0.035555555555556,0.364444444444444,-0.76,0.002181661564993,0.008726646259972,0.045814892864851,6.2188262910123,-0.035997415822383,-0.039269908169873,0.9991455078125,0.019287109375,0.018798828125,0.03192138671875,34.0222269008831,51.9695474684264,38.0544357515846
1589451148.20297,-0.44,0.1,9.79,0.074444444444445,0.364444444444444,-0.746666666666667,0.009817477042468,0.008726646259972,0.028361600344908,6.21555379866481,-0.035997415822383,-0.039269908169873,0.99908447265625,0.01922607421875,0.018798828125,0.03369140625,34.0222269008831,51.9695474684264,38.0544357515846
1589451148.2144,-0.49,0.17,9.84,0.074444444444445,0.364444444444444,-0.746666666666667,0.009817477042468,0.008726646259972,0.009817477042468,6.21555379866481,-0.035997415822383,-0.039269908169873,0.99908447265625,0.0191650390625,0.01885986328125,0.03369140625,34.2329158900693,47.3525375939525,26.8838519417619
1589451148.22352,-0.39,0.27,9.71,0.074444444444445,0.364444444444444,-0.746666666666667,0.008726646259972,0.008726646259972,-0.003272492347489,6.21555379866481,-0.035997415822383,-0.039269908169873,0.99908447265625,0.01910400390625,0.01885986328125,0.03369140625,34.2329158900693,47.3525375939525,26.8838519417619
1589451148.23521,-0.38,0.28,9.74,0.074444444444445,0.364444444444444,-0.746666666666667,0.008726646259972,0.003272492347489,0.001090830782496,6.21555379866481,-0.035997415822383,-0.039269908169873,0.99908447265625,0.01904296875,0.01885986328125,0.03369140625,34.2329158900693,51.9695474684264,36.9652243244446
1589451148.24989,-0.41,0.26,9.8,0.074444444444445,0.364444444444444,-0.746666666666667,0.007635815477475,0.002181661564993,-0.002181661564993,6.21555379866481,-0.035997415822383,-0.039269908169873,0.99908447265625,0.01904296875,0.01885986328125,0.03369140625,33.3371213661899,46.1304233506186,26.311038413585
1589451148.25677,-0.39,0.29,9.81,0.035555555555556,0.358888888888889,-0.738888888888889,0.007635815477475,0,-0.001090830782496,6.2166446294473,-0.035997415822383,-0.039269908169873,0.99908447265625,0.01904296875,0.01885986328125,0.03277587890625,33.3371213661899,46.1304233506186,26.311038413585
1589451148.26781,-0.39,0.28,9.75,0.035555555555556,0.358888888888889,-0.738888888888889,0.005454153912482,-0.005454153912482,-0.001090830782496,6.2166446294473,-0.035997415822383,-0.038179077387376,0.99908447265625,0.01898193359375,0.01885986328125,0.03277587890625,28.7678933881591,48.6366095920459,40.103947453342
1589451148.27353,-0.38,0.27,9.75,0.035555555555556,0.358888888888889,-0.738888888888889,0.005454153912482,-0.003272492347489,-0.001090830782496,6.2166446294473,-0.035997415822383,-0.038179077387376,0.99908447265625,0.01898193359375,0.01885986328125,0.03277587890625,28.7678933881591,48.6366095920459,40.103947453342
1589451148.28719,-0.37,0.3,9.77,0.035555555555556,0.358888888888889,-0.738888888888889,0.005454153912482,-0.006544984694979,-0.002181661564993,6.2166446294473,-0.035997415822383,-0.038179077387376,0.99908447265625,0.01898193359375,0.0189208984375,0.03277587890625,31.468770072761,47.7880930831402,28.7678933881591
1589451148.29687,-0.4,0.28,9.84,0.035555555555556,0.358888888888889,-0.738888888888889,0.005454153912482,-0.004363323129986,0,6.2166446294473,-0.035997415822383,-0.038179077387376,0.99908447265625,0.01898193359375,0.0189208984375,0.03277587890625,31.468770072761,47.7880930831402,28.7678933881591
1589451148.30364,-0.4,0.22,9.86,0.081111111111111,0.371111111111111,-0.732222222222222,0,0.002181661564993,-0.001090830782496,6.21228130631732,-0.035997415822383,-0.038179077387376,0.9990234375,0.01885986328125,0.0189208984375,0.0350341796875,36.9652243244446,47.7880930831402,28.7678933881591
1589451148.31228,-0.35,0.3,9.82,0.081111111111111,0.371111111111111,-0.732222222222222,0.001090830782496,0.006544984694979,-0.001090830782496,6.21228130631732,-0.035997415822383,-0.038179077387376,0.9990234375,0.01885986328125,0.0189208984375,0.0350341796875,36.9652243244446,43.447343932276,35.6768156760308
1589451148.32816,0.82,0.98,9.79,0.081111111111111,0.371111111111111,-0.732222222222222,0.009817477042468,-0.003272492347489,-0.022907446432426,6.21228130631732,-0.035997415822383,-0.038179077387376,0.9990234375,0.01885986328125,0.01898193359375,0.034912109375,34.4698929559451,35.4241394878379,27.0344983545303
1589451148.33454,-0.03,0.23,9.79,0.081111111111111,0.371111111111111,-0.732222222222222,0.022907446432426,0.002181661564993,-0.171260432851944,6.21446296788231,-0.035997415822383,-0.038179077387376,0.99908447265625,0.01898193359375,0.01898193359375,0.0340576171875,34.4698929559451,35.4241394878379,27.0344983545303
1589451148.34604,-0.72,0.05,9.73,0.081111111111111,0.371111111111111,-0.732222222222222,0.027270769562411,0.01527163095495,-0.283616003449079,6.2177354602298,-0.035997415822383,-0.039269908169873,0.99908447265625,0.01904296875,0.01910400390625,0.03271484375,31.0908536438287,54.6069144638397,35.4241394878379
1589451148.35273,-1.11,0.02,9.83,0.054444444444445,0.371111111111111,-0.717777777777778,0.026179938779915,0.019634954084936,-0.284706834231575,6.21991712179479,-0.03708824660488,-0.039269908169873,0.9991455078125,0.0191650390625,0.01922607421875,0.03131103515625,31.0908536438287,54.6069144638397,35.4241394878379
1589451148.36373,-0.93,0.14,9.83,0.054444444444445,0.371111111111111,-0.717777777777778,0.016362461737447,0.011999138607461,-0.20616701789183,6.22209878335979,-0.03708824660488,-0.039269908169873,0.9991455078125,0.01922607421875,0.019287109375,0.03033447265625,35.1995757851219,51.4603686617877,23.7591261051697
1589451148.37263,-0.89,0.1,9.71,0.054444444444445,0.371111111111111,-0.717777777777778,0.005454153912482,0.004363323129986,-0.128718032334582,6.22318961414228,-0.03708824660488,-0.039269908169873,0.99920654296875,0.01922607421875,0.019287109375,0.0296630859375,35.1995757851219,51.4603686617877,23.7591261051697
1589451148.38319,-0.48,0.24,9.77,0.054444444444445,0.371111111111111,-0.717777777777778,-0.008726646259972,-0.005454153912482,-0.045814892864851,6.22318961414228,-0.03708824660488,-0.039269908169873,0.99920654296875,0.01922607421875,0.019287109375,0.02947998046875,34.9531629304656,50.0351803226227,27.4960520921731
1589451148.39977,-0.36,0.31,9.79,0.054444444444445,0.371111111111111,-0.717777777777778,-0.009817477042468,-0.008726646259972,-0.004363323129986,6.22318961414228,-0.03708824660488,-0.039269908169873,0.99920654296875,0.01922607421875,0.019287109375,0.02947998046875,35.1995757851219,55.6979704015901,25.6229503563835
1589451148.40625,-0.39,0.27,9.83,0.054444444444445,0.364444444444444,-0.733333333333333,-0.008726646259972,-0.009817477042468,-0.001090830782496,6.22318961414228,-0.03708824660488,-0.039269908169873,0.99920654296875,0.01922607421875,0.019287109375,0.02947998046875,35.1995757851219,55.6979704015901,25.6229503563835
1589451148.4152,-0.41,0.27,9.78,0.054444444444445,0.364444444444444,-0.733333333333333,-0.003272492347489,-0.013089969389958,-0.001090830782496,6.22318961414228,-0.03708824660488,-0.039269908169873,0.99920654296875,0.01922607421875,0.01922607421875,0.02947998046875,33.5626038190663,55.6979704015901,25.6229503563835
1589451148.423,-0.4,0.25,9.72,0.054444444444445,0.364444444444444,-0.733333333333333,0.003272492347489,-0.016362461737447,-0.001090830782496,6.22318961414228,-0.03708824660488,-0.039269908169873,0.99920654296875,0.01922607421875,0.0191650390625,0.02947998046875,33.5626038190663,51.9695474684264,33.1365960190534
1589451148.43812,-0.38,0.27,9.79,0.054444444444445,0.364444444444444,-0.733333333333333,0.005454153912482,-0.016362461737447,0,6.22318961414228,-0.035997415822383,-0.039269908169873,0.99920654296875,0.01922607421875,0.01910400390625,0.02947998046875,34.4698929559451,63.4272561180947,38.6365760186654
1589451148.44798,-0.37,0.27,9.83,0.054444444444445,0.364444444444444,-0.733333333333333,0.006544984694979,-0.013089969389958,-0.001090830782496,6.22318961414228,-0.035997415822383,-0.039269908169873,0.99920654296875,0.0191650390625,0.01904296875,0.02947998046875,34.4698929559451,63.4272561180947,38.6365760186654
1589451148.45864,-0.37,0.29,9.83,0.04,0.376666666666667,-0.741111111111111,0.001090830782496,-0.008726646259972,-0.001090830782496,6.22428044492478,-0.035997415822383,-0.039269908169873,0.99920654296875,0.0191650390625,0.01904296875,0.0291748046875,36.1924068182738,52.4882270884092,35.4241394878379
1589451148.46474,-0.37,0.28,9.83,0.04,0.376666666666667,-0.741111111111111,0,-0.006544984694979,0.002181661564993,6.22428044492478,-0.035997415822383,-0.039269908169873,0.99920654296875,0.0191650390625,0.01904296875,0.0291748046875,36.1924068182738,52.4882270884092,35.4241394878379
1589451148.47427,-0.38,0.3,9.73,0.04,0.376666666666667,-0.741111111111111,-0.006544984694979,-0.004363323129986,-0.003272492347489,6.22428044492478,-0.035997415822383,-0.039269908169873,0.99920654296875,0.0191650390625,0.01904296875,0.0291748046875,37.2389082825563,69.878240577698,35.4241394878379
1589451148.48415,-0.37,0.27,9.79,0.04,0.376666666666667,-0.741111111111111,-0.009817477042468,-0.005454153912482,-0.001090830782496,6.22428044492478,-0.035997415822383,-0.039269908169873,0.99920654296875,0.0191650390625,0.01904296875,0.0291748046875,37.2389082825563,69.878240577698,35.9328824273501
1589451148.49801,-0.37,0.29,9.75,0.04,0.376666666666667,-0.741111111111111,-0.009817477042468,-0.008726646259972,0.001090830782496,6.22428044492478,-0.035997415822383,-0.039269908169873,0.99920654296875,0.01910400390625,0.01904296875,0.0291748046875,30.1543270941333,59.3610929299734,35.4241394878379
1589451148.50423,-0.37,0.29,9.76,0.04,0.371111111111111,-0.741111111111111,-0.008726646259972,-0.002181661564993,-0.001090830782496,6.22428044492478,-0.035997415822383,-0.039269908169873,0.99920654296875,0.01910400390625,0.01904296875,0.0289306640625,30.1543270941333,59.3610929299734,35.4241394878379
1589451148.51549,-0.4,0.28,9.83,0.04,0.371111111111111,-0.741111111111111,-0.005454153912482,-0.003272492347489,0.001090830782496,6.22428044492478,-0.035997415822383,-0.039269908169873,0.99920654296875,0.01910400390625,0.01904296875,0.0289306640625,35.1995757851219,66.5475916407907,32.698962376204
1589451148.52452,-0.36,0.27,9.72,0.04,0.371111111111111,-0.741111111111111,0,-0.006544984694979,0.001090830782496,6.22428044492478,-0.035997415822383,-0.039269908169873,0.99920654296875,0.01910400390625,0.01904296875,0.0289306640625,35.1995757851219,66.5475916407907,32.698962376204
1589451148.53675,-0.37,0.25,9.72,0.04,0.371111111111111,-0.741111111111111,0.004363323129986,-0.003272492347489,-0.001090830782496,6.22428044492478,-0.035997415822383,-0.038179077387376,0.99920654296875,0.01904296875,0.01904296875,0.0289306640625,30.895340572783,55.1187027150816,33.5626038190663
1589451148.55288,-0.36,0.31,9.82,0.04,0.371111111111111,-0.741111111111111,0.006544984694979,-0.001090830782496,0.001090830782496,6.22428044492478,-0.035997415822383,-0.038179077387376,0.99920654296875,0.01904296875,0.01904296875,0.0289306640625,34.4698929559451,40.7465012797081,31.468770072761
1589451148.5587,-0.36,0.24,9.82,0.035555555555556,0.371111111111111,-0.747777777777778,0.006544984694979,-0.001090830782496,0.004363323129986,6.22646210648977,-0.035997415822383,-0.038179077387376,0.999267578125,0.01904296875,0.01904296875,0.02825927734375,34.4698929559451,40.7465012797081,31.468770072761
1589451148.57127,-0.38,0.28,9.87,0.035555555555556,0.371111111111111,-0.747777777777778,0.002181661564993,0.005454153912482,0.001090830782496,6.22646210648977,-0.035997415822383,-0.038179077387376,0.999267578125,0.01904296875,0.01904296875,0.02825927734375,25.7606276168348,43.447343932276,31.468770072761
1589451148.57815,-0.46,0.25,9.73,0.035555555555556,0.371111111111111,-0.747777777777778,0,0.010908307824965,0.002181661564993,6.22646210648977,-0.035997415822383,-0.038179077387376,0.999267578125,0.01898193359375,0.01910400390625,0.02825927734375,25.7606276168348,43.447343932276,31.468770072761
1589451148.58813,-1.37,0,9.7,0.035555555555556,0.371111111111111,-0.747777777777778,-0.002181661564993,0.008726646259972,0.022907446432426,6.22537127570727,-0.035997415822383,-0.038179077387376,0.99920654296875,0.01898193359375,0.01910400390625,0.02838134765625,30.5111337136142,42.0564256969855,31.468770072761
1589451148.59796,-0.42,0.45,9.83,0.035555555555556,0.371111111111111,-0.747777777777778,-0.009817477042468,-0.005454153912482,0.154897971114497,6.22428044492478,-0.035997415822383,-0.038179077387376,0.99920654296875,0.01904296875,0.01904296875,0.02911376953125,30.5111337136142,42.0564256969855,30.5111337136142
1589451148.60835,0.18,0.5,9.86,0.054444444444445,0.376666666666667,-0.72,-0.010908307824965,-0.014180800172454,0.220347818064284,6.22209878335979,-0.035997415822383,-0.038179077387376,0.99920654296875,0.01898193359375,0.01898193359375,0.0302734375,41.7131084030182,37.7694769297699,30.5111337136142
1589451148.61472,0.26,0.46,9.81,0.054444444444445,0.376666666666667,-0.72,-0.003272492347489,-0.002181661564993,0.166897109721958,6.21991712179479,-0.035997415822383,-0.038179077387376,0.9991455078125,0.01898193359375,0.01898193359375,0.0311279296875,41.7131084030182,37.7694769297699,31.2886926387862
1589451148.62831,-0.34,0.27,9.72,0.054444444444445,0.376666666666667,-0.72,0.001090830782496,0.001090830782496,0.075267323992256,6.21991712179479,-0.035997415822383,-0.038179077387376,0.9991455078125,0.01904296875,0.01898193359375,0.031494140625,34.9531629304656,27.4960520921731,32.0832680130652
1589451148.63488,-0.4,0.27,9.77,0.054444444444445,0.376666666666667,-0.72,0.005454153912482,0.007635815477475,0.009817477042468,6.21991712179479,-0.035997415822383,-0.038179077387376,0.9991455078125,0.01904296875,0.01898193359375,0.031494140625,34.9531629304656,27.4960520921731,32.0832680130652
1589451148.64906,-0.37,0.23,9.84,0.054444444444445,0.376666666666667,-0.72,-0.002181661564993,0.007635815477475,0.002181661564993,6.21991712179479,-0.035997415822383,-0.038179077387376,0.9991455078125,0.01904296875,0.01898193359375,0.031494140625,34.9531629304656,31.6711414149526,31.8759595326099
1589451148.65503,-2.12,-0.42,9.71,0.047777777777778,0.364444444444444,-0.755555555555556,-0.004363323129986,0.010908307824965,0.003272492347489,6.21991712179479,-0.035997415822383,-0.038179077387376,0.9991455078125,0.01904296875,0.01898193359375,0.03143310546875,34.9531629304656,31.6711414149526,31.8759595326099
1589451148.66705,-1.65,-0.18,9.74,0.047777777777778,0.364444444444444,-0.755555555555556,-0.007635815477475,0.009817477042468,0.083993970252227,6.2188262910123,-0.035997415822383,-0.038179077387376,0.9991455078125,0.01904296875,0.01898193359375,0.0318603515625,34.4698929559451,47.7880930831402,27.6374023395068
1589451148.6754,-0.86,0.27,9.82,0.047777777777778,0.364444444444444,-0.755555555555556,-0.023998277214922,-0.011999138607461,0.332703388661419,6.21555379866481,-0.035997415822383,-0.038179077387376,0.99908447265625,0.0189208984375,0.0189208984375,0.033447265625,34.4698929559451,47.7880930831402,27.6374023395068
1589451148.68806,-0.09,0.46,9.73,0.047777777777778,0.364444444444444,-0.755555555555556,-0.023998277214922,-0.013089969389958,0.401425727958696,6.21228130631732,-0.035997415822383,-0.038179077387376,0.9990234375,0.01885986328125,0.018798828125,0.035400390625,34.0222269008831,45.3214313206897,30.5111337136142
1589451148.69853,0.98,0.73,9.85,0.047777777777778,0.364444444444444,-0.755555555555556,-0.016362461737447,-0.006544984694979,0.358883327441334,6.20791798318733,-0.035997415822383,-0.038179077387376,0.99896240234375,0.018798828125,0.01873779296875,0.03717041015625,34.0222269008831,45.3214313206897,30.5111337136142
1589451148.70921,0.51,0.48,9.82,0.047777777777778,0.358888888888889,-0.747777777777778,-0.002181661564993,-0.003272492347489,0.217075325716795,6.20682715240483,-0.035997415822383,-0.038179077387376,0.9989013671875,0.01885986328125,0.01873779296875,0.03814697265625,34.4698929559451,48.2311990010739,34.0222269008831
1589451148.71577,-0.48,0.26,9.82,0.047777777777778,0.358888888888889,-0.747777777777778,0.008726646259972,0.003272492347489,0.050178215994837,6.20573632162234,-0.035997415822383,-0.038179077387376,0.9989013671875,0.01885986328125,0.01873779296875,0.03839111328125,34.4698929559451,48.2311990010739,34.0222269008831
1589451148.72501,-0.36,0.27,9.74,0.047777777777778,0.358888888888889,-0.747777777777778,0.010908307824965,0.005454153912482,0.001090830782496,6.20573632162234,-0.035997415822383,-0.038179077387376,0.9989013671875,0.0189208984375,0.01873779296875,0.03839111328125,34.2329158900693,48.6366095920459,33.1365960190534
1589451148.74093,-0.35,0.28,9.75,0.047777777777778,0.358888888888889,-0.747777777777778,0.014180800172454,-0.005454153912482,-0.002181661564993,6.20573632162234,-0.035997415822383,-0.039269908169873,0.9989013671875,0.01898193359375,0.01873779296875,0.03839111328125,34.4698929559451,56.2887245662675,30.3411416352486
1589451148.74779,-0.37,0.3,9.83,0.047777777777778,0.358888888888889,-0.747777777777778,0.01527163095495,-0.003272492347489,-0.002181661564993,6.20573632162234,-0.035997415822383,-0.039269908169873,0.9989013671875,0.01904296875,0.01873779296875,0.03839111328125,34.4698929559451,56.2887245662675,30.3411416352486
1589451148.76039,-0.37,0.28,9.85,0.054444444444445,0.371111111111111,-0.747777777777778,0.01527163095495,0.005454153912482,-0.003272492347489,6.20573632162234,-0.035997415822383,-0.039269908169873,0.9989013671875,0.01910400390625,0.01873779296875,0.03839111328125,34.4698929559451,56.2887245662675,30.895340572783
1589451148.76649,-0.37,0.3,9.74,0.054444444444445,0.371111111111111,-0.747777777777778,0.008726646259972,0.006544984694979,-0.001090830782496,6.20573632162234,-0.035997415822383,-0.039269908169873,0.9989013671875,0.01910400390625,0.01873779296875,0.03839111328125,34.4698929559451,56.2887245662675,30.895340572783
1589451148.77628,-0.41,0.29,9.69,0.054444444444445,0.371111111111111,-0.747777777777778,0.005454153912482,0.007635815477475,0.001090830782496,6.20573632162234,-0.035997415822383,-0.039269908169873,0.9989013671875,0.01910400390625,0.01873779296875,0.03839111328125,34.4698929559451,56.2887245662675,30.895340572783
1589451148.78559,-0.41,0.29,9.77,0.054444444444445,0.371111111111111,-0.747777777777778,0.002181661564993,0.011999138607461,-0.003272492347489,6.20573632162234,-0.035997415822383,-0.039269908169873,0.9989013671875,0.01910400390625,0.018798828125,0.03839111328125,34.4698929559451,56.2887245662675,32.698962376204
1589451148.8006,-0.41,0.28,9.82,0.054444444444445,0.371111111111111,-0.747777777777778,0.001090830782496,0.006544984694979,0.002181661564993,6.20573632162234,-0.035997415822383,-0.039269908169873,0.9989013671875,0.01904296875,0.018798828125,0.03839111328125,34.2329158900693,56.2887245662675,32.9164194995156
1589451148.80737,-0.38,0.29,9.85,0.066666666666667,0.364444444444444,-0.755555555555556,0.004363323129986,0.002181661564993,-0.003272492347489,6.20573632162234,-0.035997415822383,-0.039269908169873,0.9989013671875,0.01904296875,0.01885986328125,0.03839111328125,34.2329158900693,56.2887245662675,32.9164194995156
1589451148.81914,-0.4,0.29,9.83,0.066666666666667,0.364444444444444,-0.755555555555556,0.004363323129986,-0.002181661564993,-0.001090830782496,6.20573632162234,-0.035997415822383,-0.039269908169873,0.9989013671875,0.01904296875,0.01885986328125,0.03839111328125,31.2886926387862,51.4603686617877,33.1365960190534
1589451148.82646,-0.38,0.26,9.72,0.066666666666667,0.364444444444444,-0.755555555555556,0.007635815477475,-0.008726646259972,-0.001090830782496,6.20573632162234,-0.035997415822383,-0.039269908169873,0.9989013671875,0.01904296875,0.01885986328125,0.03839111328125,31.2886926387862,51.4603686617877,33.1365960190534
1589451148.83818,-0.38,0.29,9.81,0.066666666666667,0.364444444444444,-0.755555555555556,0.004363323129986,-0.014180800172454,-0.004363323129986,6.20573632162234,-0.035997415822383,-0.039269908169873,0.9989013671875,0.01898193359375,0.018798828125,0.03839111328125,34.0222269008831,55.6979704015901,33.1365960190534
1589451148.84872,-0.24,0.47,9.84,0.066666666666667,0.364444444444444,-0.755555555555556,0.005454153912482,-0.019634954084936,-0.004363323129986,6.20573632162234,-0.034906585039887,-0.039269908169873,0.9989013671875,0.01898193359375,0.0186767578125,0.03839111328125,34.0222269008831,55.6979704015901,26.8838519417619
1589451148.85964,-0.5,0.16,9.81,0.054444444444445,0.358888888888889,-0.726666666666667,0.007635815477475,-0.016362461737447,-0.023998277214922,6.20573632162234,-0.034906585039887,-0.039269908169873,0.9989013671875,0.01898193359375,0.01861572265625,0.03826904296875,30.1543270941333,50.9604378494876,31.8759595326099
1589451148.86766,-0.4,0.16,9.83,0.054444444444445,0.358888888888889,-0.726666666666667,0.010908307824965,0.001090830782496,-0.05235987755983,6.20682715240483,-0.034906585039887,-0.039269908169873,0.9989013671875,0.01898193359375,0.01861572265625,0.03802490234375,30.1543270941333,50.9604378494876,31.8759595326099
1589451148.87673,-0.37,0.31,9.72,0.054444444444445,0.358888888888889,-0.726666666666667,0.006544984694979,-0.008726646259972,-0.014180800172454,6.20682715240483,-0.034906585039887,-0.039269908169873,0.9989013671875,0.01898193359375,0.01861572265625,0.0379638671875,29.0944989158125,53.5008392071668,31.6711414149526
1589451148.88652,-0.37,0.28,9.79,0.054444444444445,0.358888888888889,-0.726666666666667,0.002181661564993,-0.008726646259972,-0.007635815477475,6.20682715240483,-0.034906585039887,-0.039269908169873,0.9989013671875,0.01898193359375,0.0186767578125,0.0379638671875,29.0944989158125,53.5008392071668,31.6711414149526
1589451148.89949,-0.39,0.31,9.78,0.054444444444445,0.358888888888889,-0.726666666666667,0.001090830782496,0,-0.008726646259972,6.20682715240483,-0.034906585039887,-0.039269908169873,0.9989013671875,0.0189208984375,0.0186767578125,0.0379638671875,28.7678933881591,47.7880930831402,36.4289919074711
1589451148.90742,-0.35,0.3,9.84,0.062222222222222,0.358888888888889,-0.741111111111111,-0.002181661564993,-0.004363323129986,-0.005454153912482,6.20682715240483,-0.034906585039887,-0.038179077387376,0.9989013671875,0.0189208984375,0.0186767578125,0.0379638671875,28.7678933881591,47.7880930831402,36.4289919074711
1589451148.91939,-0.41,0.23,9.81,0.062222222222222,0.358888888888889,-0.741111111111111,0.001090830782496,-0.002181661564993,-0.014180800172454,6.20682715240483,-0.034906585039887,-0.038179077387376,0.9989013671875,0.0189208984375,0.0186767578125,0.037841796875,36.9652243244446,33.3371213661899,34.7099555628389
1589451148.93187,-0.41,0.25,9.72,0.062222222222222,0.358888888888889,-0.741111111111111,-0.001090830782496,-0.001090830782496,-0.019634954084936,6.20682715240483,-0.034906585039887,-0.038179077387376,0.99896240234375,0.01885986328125,0.0186767578125,0.03778076171875,28.2659406116019,48.2311990010739,38.0544357515846
1589451148.93865,-0.37,0.29,9.73,0.062222222222222,0.358888888888889,-0.741111111111111,0.002181661564993,-0.004363323129986,-0.010908307824965,6.20682715240483,-0.034906585039887,-0.038179077387376,0.99896240234375,0.01885986328125,0.0186767578125,0.0377197265625,28.2659406116019,48.2311990010739,38.0544357515846
1589451148.94966,-0.38,0.28,9.8,0.062222222222222,0.358888888888889,-0.741111111111111,0.006544984694979,-0.002181661564993,-0.011999138607461,6.20682715240483,-0.034906585039887,-0.038179077387376,0.99896240234375,0.01885986328125,0.0186767578125,0.03765869140625,34.2329158900693,58.0700367893867,38.0544357515846
1589451148.95737,-0.37,0.3,9.83,0.054444444444445,0.376666666666667,-0.755555555555556,0.006544984694979,-0.004363323129986,-0.013089969389958,6.20791798318733,-0.034906585039887,-0.038179077387376,0.99896240234375,0.018798828125,0.0186767578125,0.03759765625,34.2329158900693,58.0700367893867,43.0825739110969
1589451148.97772,-0.36,0.28,9.72,0.054444444444445,0.376666666666667,-0.755555555555556,0.001090830782496,0,-0.002181661564993,6.20791798318733,-0.034906585039887,-0.038179077387376,0.99896240234375,0.018798828125,0.0186767578125,0.03759765625,30.1543270941333,47.3525375939525,40.103947453342
1589451148.98727,-0.36,0.29,9.76,0.054444444444445,0.376666666666667,-0.755555555555556,0.001090830782496,0,-0.001090830782496,6.20791798318733,-0.034906585039887,-0.038179077387376,0.99896240234375,0.018798828125,0.0186767578125,0.03759765625,34.4698929559451,46.9243455174045,40.103947453342
1589451149.00057,-0.37,0.27,9.84,0.054444444444445,0.376666666666667,-0.755555555555556,0.001090830782496,-0.002181661564993,-0.001090830782496,6.20791798318733,-0.034906585039887,-0.038179077387376,0.99896240234375,0.018798828125,0.0186767578125,0.03759765625,34.4698929559451,46.9243455174045,33.1365960190534
1589451149.01166,-0.38,0.28,9.83,0.04,0.358888888888889,-0.755555555555556,-0.001090830782496,0,-0.001090830782496,6.20791798318733,-0.034906585039887,-0.038179077387376,0.99896240234375,0.01873779296875,0.01873779296875,0.03759765625,30.1543270941333,46.1304233506186,35.9328824273501
1589451149.01852,-0.36,0.28,9.78,0.04,0.358888888888889,-0.755555555555556,0.003272492347489,0,-0.003272492347489,6.20791798318733,-0.034906585039887,-0.038179077387376,0.99896240234375,0.01873779296875,0.01873779296875,0.03759765625,30.1543270941333,46.1304233506186,35.9328824273501
1589451149.02742,-0.39,0.28,9.73,0.04,0.358888888888889,-0.755555555555556,0.004363323129986,0.001090830782496,-0.001090830782496,6.20791798318733,-0.034906585039887,-0.038179077387376,0.99896240234375,0.01873779296875,0.01873779296875,0.03759765625,35.4241394878379,50.9604378494876,34.9531629304656
1589451149.04187,-0.38,0.29,9.73,0.04,0.358888888888889,-0.755555555555556,0.008726646259972,0.002181661564993,-0.002181661564993,6.20791798318733,-0.035997415822383,-0.038179077387376,0.99896240234375,0.01873779296875,0.01873779296875,0.03759765625,30.5111337136142,50.9604378494876,34.9531629304656
1589451149.04986,-0.23,0.45,9.87,0.04,0.358888888888889,-0.755555555555556,0.008726646259972,0.008726646259972,-0.026179938779915,6.20791798318733,-0.035997415822383,-0.038179077387376,0.99896240234375,0.01873779296875,0.01873779296875,0.0374755859375,30.5111337136142,48.6366095920459,34.9531629304656
1589451149.05721,-0.57,0.11,9.8,0.054444444444445,0.364444444444444,-0.741111111111111,0.011999138607461,0.014180800172454,-0.062177354602298,6.20791798318733,-0.035997415822383,-0.038179077387376,0.99896240234375,0.01873779296875,0.018798828125,0.03717041015625,30.5111337136142,48.6366095920459,34.9531629304656
1589451149.06996,-0.43,0.24,9.82,0.054444444444445,0.364444444444444,-0.741111111111111,0.010908307824965,0.008726646259972,-0.032724923474894,6.20900881396983,-0.035997415822383,-0.038179077387376,0.99896240234375,0.01873779296875,0.01885986328125,0.0369873046875,35.4241394878379,55.1187027150816,35.9328824273501
1589451149.07784,-0.38,0.34,9.74,0.054444444444445,0.364444444444444,-0.741111111111111,0.008726646259972,0.005454153912482,-0.030543261909901,6.20900881396983,-0.035997415822383,-0.038179077387376,0.99896240234375,0.01873779296875,0.01885986328125,0.036865234375,35.4241394878379,55.1187027150816,35.9328824273501
1589451149.08917,-0.44,0.25,9.79,0.054444444444445,0.364444444444444,-0.741111111111111,0.008726646259972,0.005454153912482,-0.049087385212341,6.20900881396983,-0.035997415822383,-0.038179077387376,0.99896240234375,0.0186767578125,0.01885986328125,0.03662109375,34.0222269008831,50.0351803226227,33.7909544074833
1589451149.10341,-0.4,0.29,9.81,0.054444444444445,0.364444444444444,-0.741111111111111,0.007635815477475,0.001090830782496,-0.045814892864851,6.21009964475232,-0.035997415822383,-0.038179077387376,0.99896240234375,0.0186767578125,0.01885986328125,0.036376953125,35.1995757851219,54.6069144638397,34.4698929559451
1589451149.10939,-0.41,0.27,9.81,0.054444444444445,0.358888888888889,-0.762222222222222,0.006544984694979,0.001090830782496,-0.031634092692397,6.21009964475232,-0.035997415822383,-0.038179077387376,0.99896240234375,0.0186767578125,0.0189208984375,0.0362548828125,35.1995757851219,54.6069144638397,34.4698929559451
1589451149.1222,-0.36,0.34,9.83,0.054444444444445,0.358888888888889,-0.762222222222222,0.006544984694979,0.002181661564993,-0.029452431127404,6.21009964475232,-0.035997415822383,-0.038179077387376,0.9990234375,0.01861572265625,0.0189208984375,0.03607177734375,33.7909544074833,54.6069144638397,34.9531629304656
1589451149.12858,-0.4,0.27,9.72,0.054444444444445,0.358888888888889,-0.762222222222222,0.006544984694979,0.002181661564993,-0.029452431127404,6.21119047553482,-0.035997415822383,-0.038179077387376,0.9990234375,0.01861572265625,0.0189208984375,0.03594970703125,33.7909544074833,54.6069144638397,34.9531629304656
1589451149.14169,-0.36,0.33,9.79,0.054444444444445,0.358888888888889,-0.762222222222222,0.007635815477475,0.003272492347489,-0.028361600344908,6.21119047553482,-0.035997415822383,-0.038179077387376,0.9990234375,0.01861572265625,0.0189208984375,0.03582763671875,34.9531629304656,54.6069144638397,34.7099555628389
1589451149.15125,-0.38,0.28,9.79,0.054444444444445,0.358888888888889,-0.762222222222222,0.008726646259972,0.006544984694979,-0.032724923474894,6.21119047553482,-0.035997415822383,-0.038179077387376,0.9990234375,0.01861572265625,0.0189208984375,0.03564453125,34.9531629304656,54.6069144638397,34.7099555628389
1589451149.16226,-0.3,0.32,9.85,0.054444444444445,0.376666666666667,-0.733333333333333,0.014180800172454,0.005454153912482,-0.038179077387376,6.21119047553482,-0.035997415822383,-0.038179077387376,0.9990234375,0.0186767578125,0.0189208984375,0.03546142578125,31.6711414149526,54.0485875686214,34.4698929559451
1589451149.16977,-0.09,0.44,9.86,0.054444444444445,0.376666666666667,-0.733333333333333,0.01527163095495,0.008726646259972,-0.051269046777334,6.21228130631732,-0.035997415822383,-0.038179077387376,0.9990234375,0.01873779296875,0.0189208984375,0.03521728515625,31.6711414149526,54.0485875686214,34.4698929559451
1589451149.18168,-0.19,0.44,9.72,0.054444444444445,0.376666666666667,-0.733333333333333,0.020725784867433,0.014180800172454,-0.116718893727121,6.21337213709981,-0.035997415822383,-0.038179077387376,0.9990234375,0.018798828125,0.01898193359375,0.03466796875,30.1543270941333,58.7089306323556,35.6768156760308
1589451149.18819,-0.66,0.14,9.63,0.054444444444445,0.376666666666667,-0.733333333333333,0.014180800172454,0.011999138607461,-0.105810585902156,6.21446296788231,-0.035997415822383,-0.038179077387376,0.99908447265625,0.01885986328125,0.01904296875,0.03411865234375,30.1543270941333,58.7089306323556,35.6768156760308
1589451149.20087,-0.54,0.28,9.88,0.054444444444445,0.376666666666667,-0.733333333333333,0.007635815477475,0.004363323129986,-0.063268185384795,6.21446296788231,-0.035997415822383,-0.038179077387376,0.99908447265625,0.018798828125,0.01910400390625,0.0338134765625,36.9652243244446,57.5060527200565,35.6768156760308
1589451149.20853,-0.43,0.27,9.78,0.066666666666667,0.364444444444444,-0.755555555555556,0,0.001090830782496,-0.031634092692397,6.21555379866481,-0.035997415822383,-0.038179077387376,0.99908447265625,0.018798828125,0.01910400390625,0.03363037109375,36.9652243244446,57.5060527200565,35.6768156760308
1589451149.22094,-0.36,0.3,9.8,0.066666666666667,0.364444444444444,-0.755555555555556,0.001090830782496,0.004363323129986,-0.019634954084936,6.21555379866481,-0.035997415822383,-0.038179077387376,0.99908447265625,0.018798828125,0.01910400390625,0.0335693359375,34.9531629304656,35.4241394878379,35.6768156760308
1589451149.22917,-0.39,0.25,9.72,0.066666666666667,0.364444444444444,-0.755555555555556,0.002181661564993,0.002181661564993,-0.01854412330244,6.21555379866481,-0.035997415822383,-0.038179077387376,0.99908447265625,0.01873779296875,0.01910400390625,0.033447265625,34.9531629304656,35.4241394878379,35.6768156760308
1589451149.24128,-0.24,0.37,9.8,0.066666666666667,0.364444444444444,-0.755555555555556,0.002181661564993,0.004363323129986,-0.016362461737447,6.21555379866481,-0.035997415822383,-0.038179077387376,0.99908447265625,0.01873779296875,0.01910400390625,0.03338623046875,34.2329158900693,35.1995757851219,35.4241394878379
1589451149.25514,0.08,0.64,9.86,0.066666666666667,0.364444444444444,-0.755555555555556,0.005454153912482,0.008726646259972,-0.063268185384795,6.2166446294473,-0.035997415822383,-0.038179077387376,0.99908447265625,0.01873779296875,0.0191650390625,0.0330810546875,33.3371213661899,55.6979704015901,23.5234311290473
1589451149.26109,-0.58,0.17,9.75,0.054444444444445,0.358888888888889,-0.762222222222222,0.009817477042468,0.01527163095495,-0.10144726277217,6.2177354602298,-0.03708824660488,-0.038179077387376,0.99908447265625,0.01873779296875,0.01922607421875,0.0325927734375,33.3371213661899,55.6979704015901,23.5234311290473
1589451149.27389,-0.48,0.27,9.84,0.054444444444445,0.358888888888889,-0.762222222222222,0.006544984694979,0.004363323129986,-0.03708824660488,6.2177354602298,-0.03708824660488,-0.038179077387376,0.99908447265625,0.01873779296875,0.01922607421875,0.03240966796875,33.3371213661899,58.0700367893867,27.4960520921731
1589451149.28046,-0.38,0.31,9.73,0.054444444444445,0.358888888888889,-0.762222222222222,0.003272492347489,-0.008726646259972,-0.001090830782496,6.2177354602298,-0.03708824660488,-0.038179077387376,0.99908447265625,0.01873779296875,0.01922607421875,0.03240966796875,33.3371213661899,58.0700367893867,27.4960520921731
1589451149.28743,-0.39,0.29,9.75,0.054444444444445,0.358888888888889,-0.762222222222222,0,-0.008726646259972,-0.002181661564993,6.2177354602298,-0.03708824660488,-0.038179077387376,0.99908447265625,0.01873779296875,0.01922607421875,0.03240966796875,33.3371213661899,58.0700367893867,27.4960520921731
1589451149.30097,-0.4,0.3,9.8,0.054444444444445,0.358888888888889,-0.762222222222222,0.002181661564993,-0.005454153912482,-0.001090830782496,6.2177354602298,-0.03708824660488,-0.038179077387376,0.99908447265625,0.01873779296875,0.01922607421875,0.03240966796875,34.2329158900693,53.5008392071668,26.6019071416992
1589451149.31216,-0.37,0.32,9.81,0.054444444444445,0.358888888888889,-0.746666666666667,0.001090830782496,-0.004363323129986,0.001090830782496,6.2177354602298,-0.03708824660488,-0.038179077387376,0.99908447265625,0.01873779296875,0.01922607421875,0.03240966796875,34.2329158900693,55.6979704015901,28.2659406116019
1589451149.31979,-0.4,0.32,9.82,0.054444444444445,0.358888888888889,-0.746666666666667,0.004363323129986,-0.001090830782496,-0.003272492347489,6.2177354602298,-0.03708824660488,-0.038179077387376,0.99908447265625,0.01873779296875,0.01922607421875,0.03240966796875,34.2329158900693,55.6979704015901,28.2659406116019
1589451149.32962,-0.42,0.28,9.72,0.054444444444445,0.358888888888889,-0.746666666666667,0.004363323129986,-0.001090830782496,0,6.2177354602298,-0.03708824660488,-0.038179077387376,0.99908447265625,0.0186767578125,0.01922607421875,0.03240966796875,34.2329158900693,66.5475916407907,28.2659406116019
1589451149.33913,-0.36,0.29,9.77,0.054444444444445,0.358888888888889,-0.746666666666667,0.005454153912482,0.001090830782496,0,6.2177354602298,-0.03708824660488,-0.038179077387376,0.99908447265625,0.0186767578125,0.01922607421875,0.03240966796875,34.2329158900693,66.5475916407907,23.8786361369147
1589451149.352,-0.38,0.29,9.85,0.054444444444445,0.358888888888889,-0.746666666666667,0.006544984694979,0.002181661564993,0,6.2177354602298,-0.03708824660488,-0.038179077387376,0.9991455078125,0.0186767578125,0.01922607421875,0.03240966796875,34.4698929559451,57.5060527200565,25.7606276168348
1589451149.35865,-0.39,0.29,9.88,0.04,0.364444444444444,-0.753333333333333,0.003272492347489,-0.001090830782496,-0.002181661564993,6.2177354602298,-0.03708824660488,-0.038179077387376,0.9991455078125,0.0186767578125,0.01922607421875,0.03240966796875,34.4698929559451,57.5060527200565,25.7606276168348
1589451149.36994,-0.36,0.31,9.84,0.04,0.364444444444444,-0.753333333333333,0.002181661564993,-0.001090830782496,-0.001090830782496,6.2177354602298,-0.03708824660488,-0.038179077387376,0.9991455078125,0.0186767578125,0.01922607421875,0.03240966796875,34.0222269008831,65.7409565894174,27.9564279568021
1589451149.37903,-0.4,0.29,9.71,0.04,0.364444444444444,-0.753333333333333,0.002181661564993,0.001090830782496,-0.001090830782496,6.2177354602298,-0.03708824660488,-0.038179077387376,0.9991455078125,0.0186767578125,0.01922607421875,0.03240966796875,34.0222269008831,65.7409565894174,27.9564279568021
1589451149.38905,-0.4,0.3,9.73,0.04,0.364444444444444,-0.753333333333333,0,0.003272492347489,0,6.2177354602298,-0.03708824660488,-0.038179077387376,0.9991455078125,0.01861572265625,0.01922607421875,0.03240966796875,34.2329158900693,54.6069144638397,27.9564279568021
1589451149.40667,-0.36,0.3,9.79,0.04,0.364444444444444,-0.753333333333333,0,0,-0.001090830782496,6.2177354602298,-0.03708824660488,-0.038179077387376,0.9991455078125,0.01861572265625,0.01922607421875,0.03240966796875,33.7909544074833,44.5771069119335,30.3411416352486
1589451149.41243,-0.39,0.3,9.83,0.066666666666667,0.358888888888889,-0.767777777777778,0.001090830782496,0.002181661564993,0.001090830782496,6.2177354602298,-0.03708824660488,-0.038179077387376,0.9991455078125,0.01861572265625,0.019287109375,0.03240966796875,33.7909544074833,44.5771069119335,30.3411416352486
1589451149.42451,-0.38,0.31,9.82,0.066666666666667,0.358888888888889,-0.767777777777778,0.004363323129986,0.004363323129986,-0.002181661564993,6.2177354602298,-0.03708824660488,-0.038179077387376,0.9991455078125,0.01861572265625,0.019287109375,0.03240966796875,34.0222269008831,48.6366095920459,33.7909544074833
1589451149.43056,-0.38,0.32,9.75,0.066666666666667,0.358888888888889,-0.767777777777778,0.003272492347489,0.002181661564993,0.001090830782496,6.2177354602298,-0.03708824660488,-0.038179077387376,0.9991455078125,0.01861572265625,0.019287109375,0.03240966796875,34.0222269008831,48.6366095920459,33.7909544074833
1589451149.45251,-0.37,0.28,9.83,0.066666666666667,0.358888888888889,-0.767777777777778,0.004363323129986,0.008726646259972,0.001090830782496,6.2177354602298,-0.03708824660488,-0.038179077387376,0.9991455078125,0.01861572265625,0.019287109375,0.03240966796875,32.9164194995156,43.0825739110969,30.7021135798357
1589451149.46048,-0.39,0.26,9.85,0.054444444444445,0.376666666666667,-0.746666666666667,0.005454153912482,0.010908307824965,0,6.2177354602298,-0.03708824660488,-0.038179077387376,0.9991455078125,0.0185546875,0.01934814453125,0.03240966796875,28.7678933881591,43.0825739110969,30.7021135798357
1589451149.46965,-0.48,0.24,9.83,0.054444444444445,0.376666666666667,-0.746666666666667,0.006544984694979,0.011999138607461,0.008726646259972,6.2177354602298,-0.03708824660488,-0.038179077387376,0.99908447265625,0.0185546875,0.0194091796875,0.03240966796875,28.7678933881591,46.9243455174045,31.468770072761
1589451149.4803,-0.31,0.38,9.71,0.054444444444445,0.376666666666667,-0.746666666666667,0.006544984694979,-0.009817477042468,0.092720616512199,6.2166446294473,-0.03708824660488,-0.038179077387376,0.99908447265625,0.0185546875,0.0194091796875,0.0328369140625,34.4698929559451,46.9243455174045,31.468770072761
1589451149.48969,-0.48,0.33,9.77,0.054444444444445,0.376666666666667,-0.746666666666667,0.001090830782496,0.002181661564993,0.066540677732284,6.2166446294473,-0.03708824660488,-0.038179077387376,0.99908447265625,0.0185546875,0.0194091796875,0.033203125,34.4698929559451,46.1304233506186,31.468770072761
1589451149.50308,-0.36,0.29,9.84,0.054444444444445,0.376666666666667,-0.746666666666667,0.001090830782496,-0.001090830782496,0.046905723647348,6.21555379866481,-0.03708824660488,-0.038179077387376,0.99908447265625,0.0185546875,0.0194091796875,0.03338623046875,38.0544357515846,49.0945993625023,33.7909544074833
1589451149.50967,-0.44,0.31,9.78,0.054444444444445,0.358888888888889,-0.724444444444444,0.003272492347489,0.002181661564993,0.03381575425739,6.21555379866481,-0.03708824660488,-0.038179077387376,0.99908447265625,0.0185546875,0.0194091796875,0.0335693359375,38.0544357515846,49.0945993625023,33.7909544074833
1589451149.52003,-0.4,0.32,9.78,0.054444444444445,0.358888888888889,-0.724444444444444,0.001090830782496,0.001090830782496,0.026179938779915,6.21555379866481,-0.03708824660488,-0.038179077387376,0.99908447265625,0.0185546875,0.0194091796875,0.03369140625,34.4698929559451,44.9268103449648,33.7909544074833
1589451149.53028,-0.39,0.3,9.72,0.054444444444445,0.358888888888889,-0.724444444444444,0.005454153912482,0,0.013089969389958,6.21555379866481,-0.03708824660488,-0.038179077387376,0.99908447265625,0.0185546875,0.0194091796875,0.03375244140625,34.4698929559451,44.9268103449648,33.7909544074833
1589451149.54018,-0.41,0.29,9.78,0.054444444444445,0.358888888888889,-0.724444444444444,0.007635815477475,0.004363323129986,0.002181661564993,6.21555379866481,-0.03708824660488,-0.038179077387376,0.99908447265625,0.0185546875,0.0194091796875,0.03375244140625,34.4698929559451,39.2052273141035,33.7909544074833
1589451149.55275,-0.39,0.31,9.83,0.054444444444445,0.358888888888889,-0.724444444444444,0.006544984694979,0.003272492347489,-0.001090830782496,6.21555379866481,-0.03708824660488,-0.038179077387376,0.99908447265625,0.01849365234375,0.0194091796875,0.03375244140625,34.4698929559451,39.2052273141035,50.0351803226227
1589451149.56261,-0.38,0.31,9.83,0.027777777777778,0.371111111111111,-0.733333333333333,0.006544984694979,0.006544984694979,-0.001090830782496,6.21555379866481,-0.03708824660488,-0.038179077387376,0.99908447265625,0.01849365234375,0.0194091796875,0.03375244140625,34.4698929559451,42.0564256969855,50.4695110015813
1589451149.57046,-0.42,0.32,9.82,0.027777777777778,0.371111111111111,-0.733333333333333,0.005454153912482,0.006544984694979,-0.001090830782496,6.21555379866481,-0.03708824660488,-0.038179077387376,0.99908447265625,0.01849365234375,0.0194091796875,0.03375244140625,34.4698929559451,42.0564256969855,50.4695110015813
1589451149.58249,-0.42,0.3,9.71,0.027777777777778,0.371111111111111,-0.733333333333333,0.004363323129986,0.004363323129986,-0.001090830782496,6.21555379866481,-0.03708824660488,-0.038179077387376,0.99908447265625,0.01849365234375,0.0194091796875,0.03375244140625,34.4698929559451,49.5607185479183,40.103947453342
1589451149.59016,-0.38,0.32,9.74,0.027777777777778,0.371111111111111,-0.733333333333333,0.002181661564993,0,-0.001090830782496,6.21555379866481,-0.03708824660488,-0.038179077387376,0.99908447265625,0.01849365234375,0.0194091796875,0.03375244140625,34.4698929559451,49.5607185479183,40.103947453342
1589451149.60279,-0.38,0.3,9.8,0.027777777777778,0.371111111111111,-0.733333333333333,0.002181661564993,0.001090830782496,-0.001090830782496,6.21555379866481,-0.03708824660488,-0.038179077387376,0.99908447265625,0.01849365234375,0.0194091796875,0.03375244140625,34.9531629304656,38.0544357515846,50.0351803226227
1589451149.61017,-0.39,0.3,9.82,0.047777777777778,0.371111111111111,-0.741111111111111,0.004363323129986,-0.001090830782496,-0.001090830782496,6.21555379866481,-0.03708824660488,-0.038179077387376,0.99908447265625,0.01849365234375,0.0194091796875,0.03375244140625,34.9531629304656,38.0544357515846,50.0351803226227
1589451149.62123,-0.37,0.33,9.85,0.047777777777778,0.371111111111111,-0.741111111111111,0.007635815477475,0.003272492347489,-0.001090830782496,6.21555379866481,-0.03708824660488,-0.038179077387376,0.99908447265625,0.01849365234375,0.0194091796875,0.03375244140625,34.7099555628389,46.9243455174045,36.9652243244446
1589451149.63477,-0.4,0.31,9.71,0.047777777777778,0.371111111111111,-0.741111111111111,0.004363323129986,0.011999138607461,0,6.21555379866481,-0.03708824660488,-0.038179077387376,0.99908447265625,0.01849365234375,0.01947021484375,0.03375244140625,36.9652243244446,32.4841757210392,36.1924068182738
1589451149.64079,-0.38,0.31,9.77,0.047777777777778,0.371111111111111,-0.741111111111111,0.008726646259972,0.009817477042468,0,6.21555379866481,-0.03708824660488,-0.038179077387376,0.99908447265625,0.01849365234375,0.01947021484375,0.03375244140625,36.9652243244446,32.4841757210392,36.1924068182738
1589451149.65599,-0.41,0.33,9.77,0.047777777777778,0.371111111111111,-0.741111111111111,0.006544984694979,0.004363323129986,-0.001090830782496,6.21555379866481,-0.03708824660488,-0.038179077387376,0.99908447265625,0.01849365234375,0.01947021484375,0.03375244140625,34.2329158900693,48.6366095920459,36.9652243244446
1589451149.66252,-0.4,0.35,9.84,0.047777777777778,0.358888888888889,-0.747777777777778,0.002181661564993,0.002181661564993,-0.001090830782496,6.21555379866481,-0.03708824660488,-0.038179077387376,0.99908447265625,0.01849365234375,0.01947021484375,0.03375244140625,34.2329158900693,48.6366095920459,36.9652243244446
1589451149.67369,-0.41,0.34,9.79,0.047777777777778,0.358888888888889,-0.747777777777778,-0.002181661564993,0,-0.001090830782496,6.21555379866481,-0.03708824660488,-0.038179077387376,0.99908447265625,0.01849365234375,0.01947021484375,0.03375244140625,34.9531629304656,38.3434405395358,30.895340572783
1589451149.6804,-0.38,0.32,9.73,0.047777777777778,0.358888888888889,-0.747777777777778,-0.003272492347489,0.002181661564993,-0.004363323129986,6.21555379866481,-0.03708824660488,-0.038179077387376,0.99908447265625,0.01849365234375,0.01947021484375,0.03375244140625,34.9531629304656,38.3434405395358,30.895340572783
1589451149.69069,-0.42,0.34,9.73,0.047777777777778,0.358888888888889,-0.747777777777778,0,-0.001090830782496,-0.001090830782496,6.21555379866481,-0.03708824660488,-0.038179077387376,0.99908447265625,0.01849365234375,0.01947021484375,0.03375244140625,35.1995757851219,38.3434405395358,30.895340572783
1589451149.70316,-0.38,0.3,9.8,0.047777777777778,0.358888888888889,-0.747777777777778,0,0.001090830782496,-0.003272492347489,6.21555379866481,-0.03708824660488,-0.038179077387376,0.99908447265625,0.01849365234375,0.01947021484375,0.03375244140625,35.1995757851219,54.6069144638397,31.6711414149526
1589451149.71242,-0.4,0.31,9.83,0.054444444444445,0.371111111111111,-0.741111111111111,0.003272492347489,-0.001090830782496,0.002181661564993,6.21555379866481,-0.03708824660488,-0.038179077387376,0.99908447265625,0.01849365234375,0.01947021484375,0.03375244140625,36.9652243244446,39.2052273141035,30.1543270941333
1589451149.72031,-0.4,0.3,9.85,0.054444444444445,0.371111111111111,-0.741111111111111,0.002181661564993,-0.001090830782496,-0.001090830782496,6.21555379866481,-0.03708824660488,-0.038179077387376,0.99908447265625,0.01849365234375,0.01947021484375,0.03375244140625,36.9652243244446,39.2052273141035,30.1543270941333
1589451149.73054,-0.41,0.3,9.71,0.054444444444445,0.371111111111111,-0.741111111111111,0.006544984694979,-0.002181661564993,-0.001090830782496,6.21555379866481,-0.03708824660488,-0.038179077387376,0.99908447265625,0.01849365234375,0.01947021484375,0.03375244140625,34.0222269008831,52.4882270884092,30.1543270941333
1589451149.74131,-0.39,0.32,9.78,0.054444444444445,0.371111111111111,-0.741111111111111,0.007635815477475,-0.009817477042468,-0.001090830782496,6.21555379866481,-0.03708824660488,-0.038179077387376,0.99908447265625,0.01849365234375,0.01947021484375,0.03375244140625,34.0222269008831,52.4882270884092,30.895340572783
1589451149.75356,-0.38,0.31,9.82,0.054444444444445,0.371111111111111,-0.741111111111111,0.008726646259972,-0.010908307824965,0.002181661564993,6.21555379866481,-0.03708824660488,-0.038179077387376,0.99908447265625,0.01849365234375,0.0194091796875,0.03375244140625,38.0544357515846,58.7089306323556,32.0832680130652
1589451149.76083,-0.4,0.31,9.86,0.062222222222222,0.364444444444444,-0.741111111111111,0.003272492347489,-0.006544984694979,0.002181661564993,6.21555379866481,-0.03708824660488,-0.038179077387376,0.99908447265625,0.01849365234375,0.0194091796875,0.03375244140625,38.0544357515846,58.7089306323556,32.0832680130652
1589451149.77101,-0.37,0.34,9.79,0.062222222222222,0.364444444444444,-0.741111111111111,0.003272492347489,-0.007635815477475,-0.002181661564993,6.21555379866481,-0.03708824660488,-0.038179077387376,0.99908447265625,0.01849365234375,0.0194091796875,0.03375244140625,30.1543270941333,53.5008392071668,33.7909544074833
1589451149.78347,-0.41,0.32,9.69,0.062222222222222,0.364444444444444,-0.741111111111111,0,-0.004363323129986,0,6.21555379866481,-0.03708824660488,-0.038179077387376,0.99908447265625,0.01849365234375,0.0194091796875,0.03375244140625,28.2659406116019,53.5008392071668,33.7909544074833
1589451149.79104,-0.39,0.31,9.72,0.062222222222222,0.364444444444444,-0.741111111111111,0,-0.002181661564993,-0.001090830782496,6.21555379866481,-0.03708824660488,-0.038179077387376,0.99908447265625,0.01849365234375,0.0194091796875,0.03375244140625,28.2659406116019,51.4603686617877,28.7678933881591
1589451149.80737,-0.43,0.31,9.83,0.062222222222222,0.364444444444444,-0.741111111111111,-0.003272492347489,0.003272492347489,0.001090830782496,6.21555379866481,-0.03708824660488,-0.038179077387376,0.99908447265625,0.01849365234375,0.0194091796875,0.03375244140625,36.9652243244446,50.0351803226227,34.7099555628389
1589451149.81378,-0.39,0.3,9.84,0.054444444444445,0.371111111111111,-0.733333333333333,-0.003272492347489,0,-0.001090830782496,6.21555379866481,-0.03708824660488,-0.038179077387376,0.99908447265625,0.01849365234375,0.0194091796875,0.03375244140625,36.9652243244446,50.0351803226227,34.7099555628389
1589451149.82505,-0.41,0.3,9.83,0.054444444444445,0.371111111111111,-0.733333333333333,0,0,-0.002181661564993,6.21555379866481,-0.03708824660488,-0.038179077387376,0.99908447265625,0.01849365234375,0.0194091796875,0.03375244140625,33.1365960190534,33.5626038190663,28.7678933881591
1589451149.83167,-0.4,0.31,9.72,0.054444444444445,0.371111111111111,-0.733333333333333,-0.002181661564993,-0.002181661564993,-0.001090830782496,6.21555379866481,-0.03708824660488,-0.038179077387376,0.99908447265625,0.01849365234375,0.0194091796875,0.03375244140625,33.1365960190534,33.5626038190663,28.7678933881591
1589451149.84403,-0.39,0.32,9.79,0.054444444444445,0.371111111111111,-0.733333333333333,0.002181661564993,-0.002181661564993,0,6.21555379866481,-0.03708824660488,-0.038179077387376,0.99908447265625,0.01849365234375,0.0194091796875,0.03375244140625,33.3371213661899,62.0391980178634,28.7678933881591
1589451149.8543,-0.4,0.32,9.8,0.054444444444445,0.371111111111111,-0.733333333333333,0.003272492347489,-0.005454153912482,0.002181661564993,6.21555379866481,-0.03708824660488,-0.038179077387376,0.99908447265625,0.01849365234375,0.0194091796875,0.03375244140625,33.3371213661899,62.0391980178634,30.895340572783
1589451149.86499,-0.39,0.33,9.79,0.062222222222222,0.364444444444444,-0.755555555555556,0.004363323129986,-0.004363323129986,-0.001090830782496,6.21555379866481,-0.03708824660488,-0.038179077387376,0.99908447265625,0.01849365234375,0.0194091796875,0.03375244140625,30.1543270941333,60.6382293399799,29.7870793208508
1589451149.87126,-0.39,0.34,9.84,0.062222222222222,0.364444444444444,-0.755555555555556,0.002181661564993,-0.002181661564993,0,6.21555379866481,-0.03708824660488,-0.038179077387376,0.99908447265625,0.01849365234375,0.0194091796875,0.03375244140625,30.1543270941333,60.6382293399799,29.7870793208508
1589451149.88138,-0.38,0.34,9.73,0.062222222222222,0.364444444444444,-0.755555555555556,-0.001090830782496,-0.003272492347489,-0.001090830782496,6.21555379866481,-0.03708824660488,-0.038179077387376,0.99908447265625,0.01849365234375,0.0194091796875,0.03375244140625,34.2329158900693,52.4882270884092,29.7870793208508
1589451149.89139,-0.4,0.32,9.74,0.062222222222222,0.364444444444444,-0.755555555555556,-0.001090830782496,-0.001090830782496,-0.002181661564993,6.21555379866481,-0.03708824660488,-0.038179077387376,0.99908447265625,0.01849365234375,0.0194091796875,0.03375244140625,34.2329158900693,52.4882270884092,30.7021135798357
1589451149.90633,-0.38,0.32,9.81,0.062222222222222,0.364444444444444,-0.755555555555556,-0.004363323129986,-0.001090830782496,-0.002181661564993,6.21555379866481,-0.03708824660488,-0.038179077387376,0.99908447265625,0.01849365234375,0.0194091796875,0.03375244140625,34.4698929559451,52.4882270884092,36.9652243244446
1589451149.91304,-0.38,0.31,9.85,0.066666666666667,0.358888888888889,-0.755555555555556,-0.002181661564993,0,0,6.21555379866481,-0.03708824660488,-0.038179077387376,0.99908447265625,0.01849365234375,0.0194091796875,0.03375244140625,34.4698929559451,52.4882270884092,36.9652243244446
1589451149.9249,-0.39,0.31,9.81,0.066666666666667,0.358888888888889,-0.755555555555556,-0.001090830782496,0,-0.001090830782496,6.21555379866481,-0.03708824660488,-0.038179077387376,0.99908447265625,0.01849365234375,0.0194091796875,0.03375244140625,34.2329158900693,49.0945993625023,36.9652243244446
1589451149.93507,-0.39,0.31,9.72,0.066666666666667,0.358888888888889,-0.755555555555556,-0.001090830782496,-0.002181661564993,0.002181661564993,6.21555379866481,-0.03708824660488,-0.038179077387376,0.99908447265625,0.01849365234375,0.0194091796875,0.03375244140625,34.4698929559451,48.6366095920459,36.9652243244446
1589451149.94161,-0.41,0.29,9.74,0.066666666666667,0.358888888888889,-0.755555555555556,0.001090830782496,0.002181661564993,0,6.21555379866481,-0.03708824660488,-0.038179077387376,0.99908447265625,0.01849365234375,0.0194091796875,0.03375244140625,34.4698929559451,48.6366095920459,36.9652243244446
1589451149.95812,-0.37,0.32,9.81,0.066666666666667,0.358888888888889,-0.755555555555556,0.007635815477475,-0.002181661564993,0,6.21555379866481,-0.03708824660488,-0.038179077387376,0.99908447265625,0.01849365234375,0.0194091796875,0.03375244140625,34.2329158900693,52.9633782919232,36.9652243244446
1589451149.96421,-0.39,0.31,9.83,0.062222222222222,0.364444444444444,-0.741111111111111,0.007635815477475,-0.005454153912482,-0.001090830782496,6.21555379866481,-0.03708824660488,-0.038179077387376,0.99908447265625,0.01849365234375,0.0194091796875,0.03375244140625,34.2329158900693,52.9633782919232,35.9328824273501
1589451149.97616,-0.39,0.32,9.83,0.062222222222222,0.364444444444444,-0.741111111111111,0.009817477042468,-0.002181661564993,-0.002181661564993,6.21555379866481,-0.03708824660488,-0.038179077387376,0.99908447265625,0.01849365234375,0.0194091796875,0.03375244140625,34.4698929559451,54.0485875686214,33.1365960190534
1589451149.98289,-0.39,0.31,9.72,0.062222222222222,0.364444444444444,-0.741111111111111,0.006544984694979,-0.006544984694979,-0.001090830782496,6.21555379866481,-0.03708824660488,-0.038179077387376,0.99908447265625,0.01849365234375,0.0194091796875,0.03375244140625,34.4698929559451,54.0485875686214,33.1365960190534
1589451149.99621,-0.33,0.36,9.77,0.062222222222222,0.364444444444444,-0.741111111111111,0.004363323129986,-0.003272492347489,-0.003272492347489,6.21555379866481,-0.03708824660488,-0.038179077387376,0.99908447265625,0.01849365234375,0.0194091796875,0.03375244140625,34.2329158900693,56.8913020231323,33.1365960190534
1589451150.00444,0.46,0.64,9.84,0.062222222222222,0.364444444444444,-0.741111111111111,0.006544984694979,0.003272492347489,-0.013089969389958,6.21555379866481,-0.03708824660488,-0.038179077387376,0.99908447265625,0.01849365234375,0.0194091796875,0.03369140625,34.2329158900693,56.8913020231323,33.1365960190534
1589451150.01557,-0.97,0.13,9.83,0.066666666666667,0.371111111111111,-0.741111111111111,0.006544984694979,0.017453292519943,-0.111264739814639,6.2166446294473,-0.03708824660488,-0.038179077387376,0.99908447265625,0.01849365234375,0.01953125,0.03314208984375,34.2329158900693,56.8913020231323,33.1365960190534
1589451150.02189,-0.37,0.35,9.8,0.066666666666667,0.371111111111111,-0.741111111111111,0.005454153912482,0.007635815477475,-0.065449846949787,6.2166446294473,-0.03708824660488,-0.038179077387376,0.99908447265625,0.0184326171875,0.01953125,0.0328369140625,34.2329158900693,56.8913020231323,33.1365960190534
1589451150.03485,-0.4,0.33,9.7,0.066666666666667,0.371111111111111,-0.741111111111111,0.003272492347489,-0.004363323129986,-0.007635815477475,6.2166446294473,-0.03708824660488,-0.038179077387376,0.99908447265625,0.0184326171875,0.01953125,0.0328369140625,30.1543270941333,56.8913020231323,29.9696515534829
1589451150.04192,-0.35,0.34,9.74,0.066666666666667,0.371111111111111,-0.741111111111111,0.001090830782496,-0.004363323129986,-0.007635815477475,6.2166446294473,-0.03708824660488,-0.038179077387376,0.99908447265625,0.0184326171875,0.01953125,0.0328369140625,30.1543270941333,56.8913020231323,29.9696515534829
1589451150.05489,-0.18,0.42,9.8,0.066666666666667,0.371111111111111,-0.741111111111111,0.001090830782496,-0.002181661564993,-0.022907446432426,6.2166446294473,-0.03708824660488,-0.038179077387376,0.99908447265625,0.0184326171875,0.01953125,0.03271484375,33.3371213661899,58.0700367893867,29.6245337693454
1589451150.06185,-0.56,0.25,9.79,0.047777777777778,0.351111111111111,-0.726666666666667,0.006544984694979,0,-0.049087385212341,6.2177354602298,-0.03708824660488,-0.03708824660488,0.99908447265625,0.0184326171875,0.01953125,0.032470703125,33.3371213661899,58.0700367893867,29.6245337693454
1589451150.07409,-0.41,0.3,9.82,0.047777777777778,0.351111111111111,-0.726666666666667,0.008726646259972,-0.005454153912482,-0.020725784867433,6.2177354602298,-0.03708824660488,-0.03708824660488,0.99908447265625,0.0184326171875,0.01953125,0.03240966796875,26.8838519417619,48.2311990010739,29.2691949049157
1589451150.0828,-0.39,0.33,9.76,0.047777777777778,0.351111111111111,-0.726666666666667,0.005454153912482,-0.008726646259972,-0.003272492347489,6.2177354602298,-0.03708824660488,-0.03708824660488,0.99908447265625,0.0184326171875,0.01953125,0.03240966796875,26.8838519417619,48.2311990010739,29.2691949049157
1589451150.09438,-0.38,0.28,9.77,0.047777777777778,0.351111111111111,-0.726666666666667,0.003272492347489,-0.004363323129986,-0.002181661564993,6.2177354602298,-0.03708824660488,-0.03708824660488,0.99908447265625,0.0184326171875,0.01953125,0.03240966796875,30.1543270941333,50.4695110015813,27.4960520921731
1589451150.10991,-0.4,0.3,9.81,0.047777777777778,0.351111111111111,-0.726666666666667,0.002181661564993,-0.004363323129986,0.002181661564993,6.2177354602298,-0.03708824660488,-0.03708824660488,0.99908447265625,0.0184326171875,0.01953125,0.03240966796875,41.7131084030182,31.2886926387862,31.8759595326099
1589451150.11603,-0.38,0.33,9.85,0.062222222222222,0.351111111111111,-0.733333333333333,0.006544984694979,-0.003272492347489,-0.001090830782496,6.2177354602298,-0.03708824660488,-0.03708824660488,0.99908447265625,0.0184326171875,0.01953125,0.03240966796875,41.7131084030182,31.2886926387862,31.8759595326099
1589451150.12377,-0.39,0.34,9.85,0.062222222222222,0.351111111111111,-0.733333333333333,0.006544984694979,0.003272492347489,0,6.2177354602298,-0.03708824660488,-0.03708824660488,0.99908447265625,0.0184326171875,0.01953125,0.03240966796875,41.7131084030182,31.2886926387862,31.8759595326099
1589451150.13555,-0.39,0.31,9.71,0.062222222222222,0.351111111111111,-0.733333333333333,0.005454153912482,0.002181661564993,-0.003272492347489,6.2177354602298,-0.03708824660488,-0.03708824660488,0.99908447265625,0.0184326171875,0.01953125,0.03240966796875,34.9531629304656,32.4841757210392,30.1543270941333
1589451150.14785,-0.4,0.37,9.73,0.062222222222222,0.351111111111111,-0.733333333333333,0.008726646259972,0,-0.004363323129986,6.2177354602298,-0.03708824660488,-0.03708824660488,0.99908447265625,0.0184326171875,0.01953125,0.03240966796875,34.9531629304656,40.7465012797081,25.0989107954587
1589451150.1561,-0.39,0.34,9.79,0.062222222222222,0.351111111111111,-0.733333333333333,0.007635815477475,0.001090830782496,-0.002181661564993,6.2177354602298,-0.03708824660488,-0.03708824660488,0.99908447265625,0.0184326171875,0.01953125,0.03240966796875,34.9531629304656,40.7465012797081,25.0989107954587
1589451150.16355,-0.39,0.31,9.84,0.054444444444445,0.358888888888889,-0.755555555555556,0.005454153912482,0.002181661564993,0,6.2177354602298,-0.03708824660488,-0.03708824660488,0.99908447265625,0.0184326171875,0.01953125,0.03240966796875,34.0222269008831,40.7465012797081,25.0989107954587
1589451150.17352,-0.38,0.32,9.77,0.054444444444445,0.358888888888889,-0.755555555555556,0.003272492347489,0.004363323129986,-0.001090830782496,6.2177354602298,-0.03708824660488,-0.03708824660488,0.99908447265625,0.0184326171875,0.01953125,0.03240966796875,34.0222269008831,47.7880930831402,30.895340572783
1589451150.18347,-0.4,0.32,9.68,0.054444444444445,0.358888888888889,-0.755555555555556,0.003272492347489,-0.002181661564993,0,6.2177354602298,-0.03708824660488,-0.03708824660488,0.99908447265625,0.0184326171875,0.01953125,0.03240966796875,34.2329158900693,47.7880930831402,30.895340572783
1589451150.19451,-0.4,0.33,9.75,0.054444444444445,0.358888888888889,-0.755555555555556,0.002181661564993,0,0,6.2177354602298,-0.03708824660488,-0.03708824660488,0.99908447265625,0.0184326171875,0.01953125,0.03240966796875,34.2329158900693,42.7591444390516,26.7496062321115
1589451150.20677,-0.4,0.33,9.82,0.054444444444445,0.358888888888889,-0.755555555555556,0.003272492347489,0.001090830782496,-0.001090830782496,6.2177354602298,-0.03708824660488,-0.03708824660488,0.99908447265625,0.0184326171875,0.01953125,0.03240966796875,34.2329158900693,46.9243455174045,41.7131084030182
1589451150.21422,-0.39,0.3,9.83,0.054444444444445,0.364444444444444,-0.741111111111111,0,0.003272492347489,-0.001090830782496,6.2177354602298,-0.03708824660488,-0.03708824660488,0.99908447265625,0.0184326171875,0.01953125,0.03240966796875,34.2329158900693,46.9243455174045,41.7131084030182
1589451150.22352,-0.4,0.32,9.83,0.054444444444445,0.364444444444444,-0.741111111111111,0.002181661564993,0.001090830782496,-0.001090830782496,6.2177354602298,-0.03708824660488,-0.03708824660488,0.99908447265625,0.0184326171875,0.01953125,0.03240966796875,34.4698929559451,47.7880930831402,41.7131084030182
1589451150.23383,-0.39,0.32,9.72,0.054444444444445,0.364444444444444,-0.741111111111111,0.003272492347489,0.002181661564993,0,6.2177354602298,-0.03708824660488,-0.03708824660488,0.99908447265625,0.0184326171875,0.01953125,0.03240966796875,34.4698929559451,47.7880930831402,29.4458622677045
1589451150.2447,-0.39,0.33,9.79,0.054444444444445,0.364444444444444,-0.741111111111111,0.005454153912482,0.005454153912482,0.002181661564993,6.2177354602298,-0.03708824660488,-0.03708824660488,0.99908447265625,0.0184326171875,0.01953125,0.03240966796875,33.7909544074833,50.4695110015813,38.3434405395358
1589451150.2564,-0.37,0.32,9.81,0.054444444444445,0.364444444444444,-0.741111111111111,0.002181661564993,0.004363323129986,-0.002181661564993,6.2177354602298,-0.03708824660488,-0.03708824660488,0.99908447265625,0.0184326171875,0.01953125,0.03240966796875,33.7909544074833,50.4695110015813,38.3434405395358
1589451150.26546,-0.38,0.3,9.8,0.054444444444445,0.358888888888889,-0.762222222222222,0.002181661564993,0.002181661564993,0,6.2177354602298,-0.03708824660488,-0.03708824660488,0.99908447265625,0.0184326171875,0.01953125,0.03240966796875,34.4698929559451,47.7880930831402,28.1185349541383
1589451150.2735,-0.4,0.33,9.78,0.054444444444445,0.358888888888889,-0.762222222222222,0,0,0,6.2177354602298,-0.03708824660488,-0.03708824660488,0.99908447265625,0.0184326171875,0.01953125,0.03240966796875,34.4698929559451,47.7880930831402,28.1185349541383
1589451150.28539,-0.38,0.3,9.73,0.054444444444445,0.358888888888889,-0.762222222222222,0.001090830782496,0,-0.001090830782496,6.2177354602298,-0.03708824660488,-0.03708824660488,0.99908447265625,0.0184326171875,0.01953125,0.03240966796875,34.0222269008831,54.6069144638397,39.5108430128154
1589451150.29389,-0.41,0.33,9.77,0.054444444444445,0.358888888888889,-0.762222222222222,0,-0.003272492347489,0.001090830782496,6.2177354602298,-0.03708824660488,-0.03708824660488,0.99908447265625,0.0184326171875,0.01953125,0.03240966796875,34.0222269008831,54.6069144638397,39.5108430128154
1589451150.30786,-0.39,0.32,9.81,0.054444444444445,0.358888888888889,-0.762222222222222,0.001090830782496,0,0.002181661564993,6.2177354602298,-0.03708824660488,-0.03708824660488,0.99908447265625,0.0184326171875,0.01953125,0.03240966796875,34.4698929559451,66.5475916407907,30.3411416352486
1589451150.31828,-0.37,0.34,9.81,0.066666666666667,0.364444444444444,-0.733333333333333,-0.003272492347489,-0.002181661564993,0,6.2177354602298,-0.03708824660488,-0.03708824660488,0.99908447265625,0.0184326171875,0.01953125,0.03240966796875,33.7909544074833,56.2887245662675,30.3411416352486
1589451150.32438,-0.39,0.34,9.83,0.066666666666667,0.364444444444444,-0.733333333333333,-0.001090830782496,-0.004363323129986,0.002181661564993,6.2177354602298,-0.03708824660488,-0.03708824660488,0.99908447265625,0.0184326171875,0.01953125,0.03240966796875,33.7909544074833,56.2887245662675,36.4289919074711
1589451150.33807,-0.38,0.34,9.71,0.066666666666667,0.364444444444444,-0.733333333333333,-0.003272492347489,-0.002181661564993,0,6.2177354602298,-0.03708824660488,-0.03708824660488,0.99908447265625,0.0184326171875,0.01953125,0.03240966796875,34.4698929559451,51.9695474684264,31.6711414149526
1589451150.34478,-0.38,0.32,9.81,0.066666666666667,0.364444444444444,-0.733333333333333,-0.004363323129986,-0.003272492347489,-0.001090830782496,6.2177354602298,-0.03708824660488,-0.03708824660488,0.99908447265625,0.0184326171875,0.01953125,0.03240966796875,34.4698929559451,51.9695474684264,31.6711414149526
1589451150.35703,-0.4,0.33,9.82,0.066666666666667,0.364444444444444,-0.733333333333333,-0.008726646259972,-0.004363323129986,-0.002181661564993,6.2177354602298,-0.03708824660488,-0.03708824660488,0.99908447265625,0.0184326171875,0.01953125,0.03240966796875,33.7909544074833,51.9695474684264,35.6768156760308
1589451150.36467,-0.4,0.32,9.83,0.047777777777778,0.364444444444444,-0.755555555555556,-0.006544984694979,-0.003272492347489,-0.002181661564993,6.2177354602298,-0.03708824660488,-0.03708824660488,0.99908447265625,0.0184326171875,0.01953125,0.03240966796875,33.7909544074833,51.9695474684264,35.6768156760308
1589451150.37426,-0.4,0.35,9.84,0.047777777777778,0.364444444444444,-0.755555555555556,-0.008726646259972,-0.007635815477475,-0.002181661564993,6.2177354602298,-0.03708824660488,-0.03708824660488,0.99908447265625,0.0184326171875,0.01953125,0.03240966796875,35.4241394878379,51.9695474684264,35.6768156760308
1589451150.38561,-0.39,0.35,9.71,0.047777777777778,0.364444444444444,-0.755555555555556,-0.013089969389958,-0.008726646259972,0,6.2177354602298,-0.03708824660488,-0.03708824660488,0.9991455078125,0.01837158203125,0.01953125,0.03240966796875,35.4241394878379,52.4882270884092,28.7678933881591
1589451150.39553,-0.41,0.34,9.75,0.047777777777778,0.364444444444444,-0.755555555555556,-0.014180800172454,-0.005454153912482,-0.001090830782496,6.2177354602298,-0.03708824660488,-0.03708824660488,0.9991455078125,0.018310546875,0.01953125,0.03240966796875,32.698962376204,51.9695474684264,28.7678933881591
1589451150.41115,-0.38,0.32,9.77,0.047777777777778,0.364444444444444,-0.755555555555556,-0.014180800172454,-0.001090830782496,-0.002181661564993,6.2177354602298,-0.03708824660488,-0.03708824660488,0.9991455078125,0.01824951171875,0.01953125,0.03240966796875,34.4698929559451,52.9633782919232,30.7021135798357
1589451150.4176,-0.4,0.31,9.82,0.04,0.364444444444444,-0.747777777777778,-0.011999138607461,-0.001090830782496,0,6.2177354602298,-0.03708824660488,-0.03708824660488,0.9991455078125,0.0181884765625,0.01953125,0.03240966796875,34.4698929559451,52.9633782919232,34.9531629304656
1589451150.42519,-0.41,0.32,9.79,0.04,0.364444444444444,-0.747777777777778,-0.013089969389958,0.001090830782496,0,6.2177354602298,-0.03708824660488,-0.03708824660488,0.9991455078125,0.01812744140625,0.01953125,0.03240966796875,34.4698929559451,52.9633782919232,34.9531629304656
1589451150.43731,-0.38,0.3,9.73,0.04,0.364444444444444,-0.747777777777778,-0.011999138607461,-0.002181661564993,0.001090830782496,6.2177354602298,-0.03708824660488,-0.03708824660488,0.9991455078125,0.01806640625,0.01953125,0.03240966796875,34.0222269008831,35.1995757851219,32.0832680130652
1589451150.44512,-0.38,0.32,9.75,0.04,0.364444444444444,-0.747777777777778,-0.014180800172454,-0.002181661564993,0.001090830782496,6.2177354602298,-0.03708824660488,-0.03708824660488,0.9991455078125,0.01800537109375,0.01953125,0.03240966796875,34.0222269008831,35.1995757851219,32.0832680130652
1589451150.45766,-0.37,0.32,9.83,0.04,0.364444444444444,-0.747777777777778,-0.016362461737447,-0.006544984694979,0,6.2177354602298,-0.03708824660488,-0.03708824660488,0.9991455078125,0.0179443359375,0.01953125,0.03240966796875,38.3434405395358,59.3610929299734,31.6711414149526
1589451150.4681,-0.4,0.32,9.83,0.062222222222222,0.371111111111111,-0.755555555555556,-0.020725784867433,-0.008726646259972,-0.001090830782496,6.2177354602298,-0.03708824660488,-0.035997415822383,0.9991455078125,0.017822265625,0.01953125,0.03240966796875,30.7021135798357,55.6979704015901,31.6711414149526
1589451150.47455,-0.4,0.31,9.83,0.062222222222222,0.371111111111111,-0.755555555555556,-0.019634954084936,-0.013089969389958,0,6.2177354602298,-0.03708824660488,-0.035997415822383,0.9991455078125,0.0177001953125,0.01947021484375,0.03240966796875,30.7021135798357,55.6979704015901,26.8838519417619
1589451150.48845,-0.4,0.32,9.71,0.062222222222222,0.371111111111111,-0.755555555555556,-0.01854412330244,-0.01527163095495,0,6.2177354602298,-0.03708824660488,-0.035997415822383,0.9991455078125,0.01763916015625,0.0194091796875,0.03240966796875,35.4241394878379,47.7880930831402,26.8838519417619
1589451150.49514,-0.4,0.32,9.77,0.062222222222222,0.371111111111111,-0.755555555555556,-0.01854412330244,-0.01527163095495,-0.001090830782496,6.2177354602298,-0.03708824660488,-0.035997415822383,0.9991455078125,0.01751708984375,0.019287109375,0.03240966796875,35.4241394878379,47.7880930831402,31.0908536438287
1589451150.51064,-0.4,0.3,9.81,0.062222222222222,0.371111111111111,-0.755555555555556,-0.021816615649929,-0.014180800172454,0,6.2177354602298,-0.03708824660488,-0.035997415822383,0.9991455078125,0.0174560546875,0.01922607421875,0.03240966796875,30.1543270941333,46.9243455174045,34.0222269008831
1589451150.51654,-0.39,0.3,9.82,0.054444444444445,0.358888888888889,-0.762222222222222,-0.019634954084936,-0.019634954084936,0,6.2177354602298,-0.03708824660488,-0.034906585039887,0.9991455078125,0.017333984375,0.01910400390625,0.03240966796875,30.1543270941333,46.9243455174045,34.0222269008831
1589451150.52874,-0.36,0.33,9.78,0.054444444444445,0.358888888888889,-0.762222222222222,-0.025089107997419,-0.01854412330244,-0.001090830782496,6.2177354602298,-0.035997415822383,-0.034906585039887,0.9991455078125,0.0172119140625,0.01904296875,0.03240966796875,33.5626038190663,43.0825739110969,32.2720117591499
1589451150.53561,-0.4,0.28,9.71,0.054444444444445,0.358888888888889,-0.762222222222222,-0.031634092692397,-0.017453292519943,0,6.2177354602298,-0.035997415822383,-0.034906585039887,0.9991455078125,0.01708984375,0.0189208984375,0.03240966796875,33.5626038190663,43.0825739110969,32.2720117591499
1589451150.54542,-0.37,0.3,9.78,0.054444444444445,0.358888888888889,-0.762222222222222,-0.040360738952369,-0.017453292519943,0,6.2177354602298,-0.035997415822383,-0.034906585039887,0.9991455078125,0.01690673828125,0.01885986328125,0.03240966796875,29.9696515534829,43.0825739110969,32.2720117591499
1589451150.56137,-0.38,0.27,9.79,0.054444444444445,0.358888888888889,-0.762222222222222,-0.043633231299858,-0.017453292519943,-0.003272492347489,6.2177354602298,-0.035997415822383,-0.03381575425739,0.9991455078125,0.01666259765625,0.01873779296875,0.03240966796875,33.3371213661899,39.5108430128154,33.5626038190663
1589451150.56775,-0.37,0.3,9.82,0.062222222222222,0.364444444444444,-0.741111111111111,-0.040360738952369,-0.021816615649929,-0.004363323129986,6.2177354602298,-0.035997415822383,-0.03381575425739,0.9991455078125,0.0164794921875,0.0186767578125,0.03240966796875,33.3371213661899,39.5108430128154,33.5626038190663
1589451150.57565,-0.38,0.29,9.82,0.062222222222222,0.364444444444444,-0.741111111111111,-0.040360738952369,-0.021816615649929,-0.004363323129986,6.2177354602298,-0.034906585039887,-0.032724923474894,0.9991455078125,0.01629638671875,0.0185546875,0.03240966796875,33.3371213661899,39.5108430128154,33.5626038190663
1589451150.58835,-0.33,0.27,9.72,0.062222222222222,0.364444444444444,-0.741111111111111,-0.026179938779915,-0.01854412330244,-0.001090830782496,6.2177354602298,-0.034906585039887,-0.032724923474894,0.9991455078125,0.01617431640625,0.0184326171875,0.03240966796875,36.9652243244446,43.8179307816411,33.7909544074833
1589451150.59647,-0.38,0.25,9.78,0.062222222222222,0.364444444444444,-0.741111111111111,-0.022907446432426,-0.011999138607461,-0.001090830782496,6.2177354602298,-0.034906585039887,-0.032724923474894,0.99920654296875,0.01605224609375,0.01837158203125,0.03240966796875,36.9652243244446,43.8179307816411,33.7909544074833
1589451150.60819,-0.38,0.28,9.81,0.062222222222222,0.364444444444444,-0.741111111111111,-0.01854412330244,-0.013089969389958,-0.001090830782496,6.2177354602298,-0.034906585039887,-0.032724923474894,0.99920654296875,0.0159912109375,0.018310546875,0.03240966796875,34.9531629304656,37.2389082825563,33.3371213661899
1589451150.61888,-0.38,0.28,9.83,0.054444444444445,0.351111111111111,-0.741111111111111,-0.025089107997419,-0.021816615649929,-0.001090830782496,6.2177354602298,-0.034906585039887,-0.032724923474894,0.99920654296875,0.015869140625,0.0181884765625,0.03240966796875,36.9652243244446,40.103947453342,33.3371213661899
1589451150.62575,-0.37,0.28,9.84,0.054444444444445,0.351111111111111,-0.741111111111111,-0.034906585039887,-0.026179938779915,-0.001090830782496,6.2177354602298,-0.034906585039887,-0.031634092692397,0.99920654296875,0.01568603515625,0.01806640625,0.03240966796875,36.9652243244446,40.103947453342,32.4841757210392
1589451150.64102,-0.36,0.24,9.7,0.054444444444445,0.351111111111111,-0.741111111111111,-0.040360738952369,-0.019634954084936,-0.002181661564993,6.2177354602298,-0.034906585039887,-0.031634092692397,0.99920654296875,0.0155029296875,0.0179443359375,0.03240966796875,36.9652243244446,39.5108430128154,33.1365960190534
1589451150.64856,-0.37,0.27,9.73,0.054444444444445,0.351111111111111,-0.741111111111111,-0.03381575425739,-0.01854412330244,-0.001090830782496,6.2177354602298,-0.03381575425739,-0.031634092692397,0.99920654296875,0.01531982421875,0.01788330078125,0.03240966796875,36.9652243244446,39.5108430128154,33.1365960190534
1589451150.66182,-0.37,0.23,9.81,0.054444444444445,0.351111111111111,-0.741111111111111,-0.026179938779915,-0.01854412330244,-0.002181661564993,6.2177354602298,-0.03381575425739,-0.030543261909901,0.99920654296875,0.01519775390625,0.01776123046875,0.03240966796875,33.5626038190663,48.2311990010739,33.5626038190663
1589451150.66868,-0.33,0.27,9.85,0.04,0.376666666666667,-0.733333333333333,-0.01854412330244,-0.01527163095495,-0.002181661564993,6.2177354602298,-0.03381575425739,-0.030543261909901,0.99920654296875,0.01513671875,0.0177001953125,0.03240966796875,33.5626038190663,48.2311990010739,33.5626038190663
1589451150.67945,-0.37,0.26,9.82,0.04,0.376666666666667,-0.733333333333333,-0.011999138607461,-0.014180800172454,-0.002181661564993,6.2177354602298,-0.03381575425739,-0.030543261909901,0.99920654296875,0.01507568359375,0.01763916015625,0.03240966796875,36.1924068182738,51.9695474684264,33.7909544074833
1589451150.68666,-0.35,0.24,9.72,0.04,0.376666666666667,-0.733333333333333,-0.009817477042468,-0.017453292519943,0,6.2177354602298,-0.03381575425739,-0.030543261909901,0.99920654296875,0.01507568359375,0.01751708984375,0.03240966796875,36.1924068182738,51.9695474684264,33.7909544074833
1589451150.69993,-0.33,0.25,9.76,0.04,0.376666666666667,-0.733333333333333,-0.007635815477475,-0.01527163095495,-0.001090830782496,6.2177354602298,-0.03381575425739,-0.030543261909901,0.99920654296875,0.01507568359375,0.0174560546875,0.03240966796875,31.6711414149526,49.5607185479183,29.7870793208508
1589451150.70917,-0.33,0.21,9.88,0.04,0.376666666666667,-0.733333333333333,-0.009817477042468,-0.008726646259972,0,6.2177354602298,-0.03381575425739,-0.030543261909901,0.99920654296875,0.01507568359375,0.0174560546875,0.03240966796875,31.6711414149526,49.5607185479183,29.7870793208508
1589451150.71934,-0.39,0.28,9.82,0.047777777777778,0.376666666666667,-0.747777777777778,-0.017453292519943,-0.003272492347489,0.001090830782496,6.2177354602298,-0.03381575425739,-0.030543261909901,0.99920654296875,0.01495361328125,0.0174560546875,0.03240966796875,34.9531629304656,51.9695474684264,30.5111337136142
1589451150.72644,-0.38,0.25,9.81,0.047777777777778,0.376666666666667,-0.747777777777778,-0.019634954084936,-0.009817477042468,0,6.2177354602298,-0.03381575425739,-0.030543261909901,0.99920654296875,0.014892578125,0.0174560546875,0.03240966796875,34.9531629304656,51.9695474684264,30.5111337136142
1589451150.73666,-0.36,0.24,9.72,0.047777777777778,0.376666666666667,-0.747777777777778,-0.020725784867433,-0.014180800172454,0.001090830782496,6.2177354602298,-0.032724923474894,-0.030543261909901,0.99920654296875,0.0147705078125,0.01739501953125,0.03240966796875,34.4698929559451,41.4085744282795,30.5111337136142
1589451150.7467,-0.33,0.21,9.77,0.047777777777778,0.376666666666667,-0.747777777777778,-0.020725784867433,-0.009817477042468,-0.001090830782496,6.2177354602298,-0.032724923474894,-0.029452431127404,0.99920654296875,0.0146484375,0.01739501953125,0.03240966796875,34.4698929559451,41.4085744282795,27.4960520921731
1589451150.75978,-0.34,0.19,9.79,0.047777777777778,0.376666666666667,-0.747777777777778,-0.014180800172454,-0.004363323129986,-0.003272492347489,6.2177354602298,-0.032724923474894,-0.029452431127404,0.99920654296875,0.01458740234375,0.01739501953125,0.03240966796875,33.1365960190534,36.4289919074711,28.1185349541383
1589451150.77247,-0.35,0.23,9.83,0.04,0.364444444444444,-0.755555555555556,-0.009817477042468,-0.001090830782496,-0.001090830782496,6.2177354602298,-0.032724923474894,-0.029452431127404,0.99920654296875,0.01458740234375,0.01739501953125,0.03240966796875,35.4241394878379,55.6979704015901,22.4397364272424
1589451150.77912,-0.38,0.17,9.83,0.04,0.364444444444444,-0.755555555555556,-0.013089969389958,-0.001090830782496,-0.002181661564993,6.2177354602298,-0.032724923474894,-0.029452431127404,0.99920654296875,0.0145263671875,0.01739501953125,0.03240966796875,35.4241394878379,55.6979704015901,22.4397364272424
1589451150.79272,-0.33,0.27,9.73,0.04,0.364444444444444,-0.755555555555556,-0.005454153912482,-0.014180800172454,-0.002181661564993,6.2177354602298,-0.032724923474894,-0.029452431127404,0.99920654296875,0.0145263671875,0.017333984375,0.03240966796875,32.2720117591499,51.4603686617877,27.4960520921731
1589451150.79858,-0.35,0.3,9.64,0.04,0.364444444444444,-0.755555555555556,-0.008726646259972,-0.01527163095495,-0.001090830782496,6.2177354602298,-0.032724923474894,-0.029452431127404,0.99920654296875,0.0145263671875,0.0172119140625,0.03240966796875,32.2720117591499,51.4603686617877,27.4960520921731
1589451150.81379,-0.35,0.24,9.81,0.04,0.364444444444444,-0.755555555555556,-0.019634954084936,-0.023998277214922,-0.002181661564993,6.2177354602298,-0.032724923474894,-0.029452431127404,0.99920654296875,0.01446533203125,0.01708984375,0.03240966796875,34.4698929559451,51.4603686617877,25.7606276168348
1589451150.82029,-0.36,0.23,9.84,0.062222222222222,0.364444444444444,-0.747777777777778,-0.023998277214922,-0.021816615649929,-0.001090830782496,6.2177354602298,-0.032724923474894,-0.029452431127404,0.99920654296875,0.01434326171875,0.01702880859375,0.03240966796875,34.4698929559451,51.4603686617877,25.7606276168348
1589451150.83151,-0.32,0.21,9.82,0.062222222222222,0.364444444444444,-0.747777777777778,-0.020725784867433,-0.022907446432426,0,6.2177354602298,-0.032724923474894,-0.029452431127404,0.99920654296875,0.01422119140625,0.01690673828125,0.03240966796875,30.895340572783,49.5607185479183,32.2720117591499
1589451150.83795,-0.35,0.23,9.77,0.062222222222222,0.364444444444444,-0.747777777777778,-0.016362461737447,-0.01854412330244,0,6.2177354602298,-0.031634092692397,-0.028361600344908,0.99920654296875,0.01416015625,0.01678466796875,0.03240966796875,30.895340572783,49.5607185479183,32.2720117591499
1589451150.84925,-0.33,0.2,9.79,0.062222222222222,0.364444444444444,-0.747777777777778,-0.016362461737447,-0.01527163095495,-0.001090830782496,6.2177354602298,-0.031634092692397,-0.028361600344908,0.99920654296875,0.01409912109375,0.0167236328125,0.03240966796875,35.4241394878379,49.5607185479183,32.2720117591499
1589451150.8616,-0.34,0.24,9.83,0.062222222222222,0.364444444444444,-0.747777777777778,-0.014180800172454,-0.010908307824965,-0.003272492347489,6.2177354602298,-0.031634092692397,-0.028361600344908,0.99920654296875,0.0140380859375,0.01666259765625,0.03240966796875,35.4241394878379,50.4695110015813,28.7678933881591
1589451150.87081,-0.33,0.23,9.84,0.04,0.371111111111111,-0.755555555555556,-0.01527163095495,-0.010908307824965,-0.001090830782496,6.2177354602298,-0.031634092692397,-0.028361600344908,0.999267578125,0.01397705078125,0.0166015625,0.03240966796875,31.6711414149526,50.0351803226227,38.9040016109751
1589451150.88956,-0.33,0.22,9.72,0.04,0.371111111111111,-0.755555555555556,-0.009817477042468,-0.007635815477475,-0.003272492347489,6.2177354602298,-0.031634092692397,-0.028361600344908,0.999267578125,0.013916015625,0.0166015625,0.03240966796875,35.4241394878379,54.0485875686214,36.4289919074711
1589451150.89697,-0.32,0.25,9.79,0.04,0.371111111111111,-0.755555555555556,-0.013089969389958,-0.005454153912482,-0.002181661564993,6.2177354602298,-0.031634092692397,-0.028361600344908,0.999267578125,0.01385498046875,0.0166015625,0.03240966796875,35.4241394878379,54.0485875686214,36.4289919074711
1589451150.91005,-0.33,0.23,9.8,0.04,0.371111111111111,-0.755555555555556,-0.01527163095495,-0.002181661564993,-0.002181661564993,6.2177354602298,-0.031634092692397,-0.028361600344908,0.999267578125,0.01373291015625,0.0166015625,0.03240966796875,30.1543270941333,50.4695110015813,38.9040016109751
1589451150.91826,-0.32,0.2,9.86,0.062222222222222,0.383333333333333,-0.755555555555556,-0.01527163095495,-0.002181661564993,-0.002181661564993,6.2177354602298,-0.031634092692397,-0.028361600344908,0.999267578125,0.013671875,0.0166015625,0.03240966796875,30.1543270941333,50.4695110015813,38.9040016109751
